time,seconds_elapsed,z,y,x
1789063969865317000,0.044317138671875,-0.05285901576280594,0.02297910489141941,0.015918154269456863
1789063969875354000,0.05435400390625,-0.05152323096990585,0.020697133615612984,0.014962571673095226
1789063969885391000,0.06439111328125,-0.04595509171485901,0.02230914495885372,0.015578826889395714
1789063969895427800,0.074427734375,-0.040871839970350266,0.01950678601861,0.013828588649630547
1789063969905465000,0.084465087890625,-0.03476627916097641,0.027491211891174316,0.012241877615451813
1789063969915502000,0.094502197265625,-0.029476875439286232,0.03024604171514511,0.011728225275874138
1789063969925539000,0.1045390625,-0.02170976623892784,0.041581522673368454,0.01117055956274271
1789063969935576800,0.114576904296875,-0.016847973689436913,0.041278574615716934,0.014156905934214592
1789063969945614000,0.124614013671875,-0.02033005654811859,0.04683605954051018,0.017437387257814407
1789063969955651000,0.134651123046875,-0.019929273054003716,0.041104756295681,0.016293609514832497
1789063969965688000,0.14468798828125,-0.02272399328649044,0.043235816061496735,0.017959417775273323
1789063969975725000,0.15472509765625,-0.03132510557770729,0.03895798325538635,0.02969990484416485
1789063969985762000,0.164761962890625,-0.04364808648824692,0.03318291902542114,0.03772294521331787
1789063969995799000,0.174799072265625,-0.041535019874572754,0.048798393458127975,0.033602919429540634
1789063970005836000,0.1848359375,-0.01955408602952957,0.040615566074848175,0.011330638080835342
1789063970015873000,0.194873046875,0.013280779123306274,0.06699440628290176,-0.015475180000066757
1789063970025910000,0.204909912109375,0.02600669302046299,0.045062482357025146,-0.0159675981849432
1789063970035947000,0.214947021484375,0.02920106239616871,0.07592254132032394,-0.02676025964319706
1789063970045984000,0.22498388671875,0.026753883808851242,0.10886531323194504,-0.0369148924946785
1789063970056021000,0.23502099609375,0.029310639947652817,0.07379751652479172,-0.044459469616413116
1789063970066058000,0.24505810546875,0.03803515434265137,0.11032117158174515,-0.03081263229250908
1789063970076096000,0.255095947265625,0.043270330876111984,0.08021392673254013,-0.02200261503458023
1789063970086133000,0.265133056640625,0.04250467196106911,0.07653290778398514,-0.004924030043184757
1789063970096170000,0.275169921875,0.03240048885345459,0.06947923451662064,0.008885012939572334
1789063970106207200,0.285207275390625,0.02240671031177044,0.06764351576566696,0.024122554808855057
1789063970116244000,0.295243896484375,0.018204988911747932,0.05850916728377342,0.04344521462917328
1789063970126281000,0.305281005859375,0.022748341783881187,0.05439751222729683,0.054007578641176224
1789063970136318000,0.31531787109375,0.03071451745927334,0.05444210395216942,0.05565663427114487
1789063970146355000,0.32535498046875,0.03607066348195076,0.056529492139816284,0.04893641546368599
1789063970156392200,0.33539208984375,0.03836414963006973,0.06678473204374313,0.036682985723018646
1789063970166429000,0.345428955078125,0.04158897325396538,0.07366687059402466,0.01871464028954506
1789063970176466000,0.3554658203125,0.04323212429881096,0.07064900547266006,0.0011068054009228945
1789063970186503000,0.3655029296875,0.048331812024116516,0.0816049873828888,-0.018169153481721878
1789063970196540200,0.3755400390625,0.050098009407520294,0.08226236701011658,-0.02686384879052639
1789063970206577200,0.3855771484375,0.05318327993154526,0.0785408690571785,-0.025988735258579254
1789063970216615000,0.395614990234375,0.061302442103624344,0.07856114208698273,-0.016198769211769104
1789063970226652200,0.405652099609375,0.07364486157894135,0.09084364026784897,-0.007342958822846413
1789063970236689200,0.415689208984375,0.08723589032888412,0.10262922197580338,-0.0035267630591988564
1789063970246726100,0.42572607421875,0.08804309368133545,0.09182450920343399,0.0074878050945699215
1789063970256763000,0.435762939453125,0.04786992445588112,0.031279176473617554,0.019807716831564903
1789063970266799900,0.4457998046875,0.00013355910778045654,0.036695778369903564,0.015116824768483639
1789063970276837000,0.455837158203125,-0.02466445043683052,0.10582748055458069,0.02718062326312065
1789063970286874000,0.4658740234375,-0.0147614860907197,0.026590442284941673,0.06534291803836823
1789063970296911000,0.4759111328125,0.03386261314153671,-0.0272012110799551,0.057356178760528564
1789063970306947800,0.48594775390625,0.06910981237888336,0.07176904380321503,0.012547161430120468
1789063970316985000,0.495985107421875,0.06373701244592667,0.06895745545625687,0.002083760453388095
1789063970327022000,0.50602197265625,0.027802176773548126,0.006542284041643143,0.016790268942713737
1789063970337059000,0.51605908203125,-0.009273231029510498,0.06575524806976318,0.017868224531412125
1789063970347096800,0.526096923828125,-0.02438986673951149,0.01542709581553936,-0.011099511757493019
1789063970357134000,0.536134033203125,-0.020301150158047676,0.056962817907333374,-0.03636501356959343
1789063970367171000,0.546171142578125,-0.0074141137301921844,0.004834368824958801,-0.021619359031319618
1789063970377208000,0.5562080078125,-0.02056143432855606,-0.011121014133095741,-0.017875421792268753
1789063970387245000,0.5662451171875,-0.036588601768016815,-0.03688976168632507,-0.015267656184732914
1789063970397282000,0.576281982421875,-0.050918009132146835,-0.05722639709711075,-0.015142888762056828
1789063970407319000,0.586319091796875,-0.05016620084643364,0.15413326025009155,-0.0001389062963426113
1789063970417356000,0.59635595703125,-0.058681584894657135,0.011996494606137276,0.030519526451826096
1789063970427393000,0.60639306640625,-0.04985853284597397,-0.10711950808763504,0.04556052386760712
1789063970437430000,0.616429931640625,-0.027561819180846214,-0.05240320414304733,0.05978129059076309
1789063970447467000,0.626467041015625,0.0016618464142084122,-0.12127601355314255,0.025415858253836632
1789063970457504000,0.63650390625,0.008309263736009598,-0.012186545878648758,0.018779052421450615
1789063970467541000,0.646541015625,0.008585965260863304,0.04851754754781723,0.020886944606900215
1789063970477578000,0.656577880859375,0.012174771167337894,0.0282613392919302,0.010814882814884186
1789063970487616000,0.666615966796875,0.055364854633808136,0.07248179614543915,-0.009479735977947712
1789063970497653000,0.676653076171875,0.12491296976804733,0.08210205286741257,-0.03044745698571205
1789063970507690000,0.68668994140625,0.2019752711057663,0.05713065341114998,-0.05114208161830902
1789063970517727200,0.696727294921875,0.26712530851364136,0.06827272474765778,-0.07303674519062042
1789063970527764000,0.706763916015625,0.3156675398349762,0.0886022299528122,-0.06590293347835541
1789063970537801000,0.716801025390625,0.3415775001049042,0.15651166439056396,-0.05737829953432083
1789063970547838000,0.726837890625,0.3626660108566284,0.1885944902896881,-0.04990573599934578
1789063970557875000,0.736875,0.3806699812412262,0.20821402966976166,-0.03139613941311836
1789063970567912200,0.746912109375,0.3921617865562439,0.21558833122253418,0.0055831847712397575
1789063970577949000,0.756948974609375,0.36812302470207214,0.11712010949850082,0.07247957587242126
1789063970587986000,0.76698583984375,0.3166680932044983,0.03413893282413483,0.1278725415468216
1789063970598023000,0.77702294921875,0.2597830593585968,0.011117890477180481,0.1456621140241623
1789063970608060200,0.78706005859375,0.23589318990707397,0.06656516343355179,0.12595738470554352
1789063970618097200,0.79709716796875,0.24825721979141235,0.0980772003531456,0.11024583876132965
1789063970628135000,0.807135009765625,0.27504703402519226,0.08433502167463303,0.06812075525522232
1789063970638172400,0.81717236328125,0.3007996380329132,0.10557450354099274,0.021457673981785774
1789063970648209400,0.82720947265625,0.2979641854763031,0.0867033451795578,-0.04082993417978287
1789063970658246400,0.837246337890625,0.27656668424606323,0.09098100662231445,-0.08228527009487152
1789063970668283400,0.847283447265625,0.24839577078819275,0.08190042525529861,-0.08595004677772522
1789063970678320400,0.8573203125,0.22689244151115417,0.05419895797967911,-0.0738895833492279
1789063970688357400,0.867357421875,0.22141379117965698,0.08272141218185425,-0.09183023124933243
1789063970698394400,0.877394287109375,0.2214556187391281,0.11595039069652557,-0.0985632836818695
1789063970708431400,0.887431396484375,0.22158372402191162,0.11166934669017792,-0.06357840448617935
1789063970718468400,0.89746826171875,0.22551456093788147,0.09495583176612854,-0.024019673466682434
1789063970728505300,0.90750537109375,0.2266131043434143,0.07730226963758469,0.027109824120998383
1789063970738542300,0.917542236328125,0.21378488838672638,0.06575903296470642,0.048271533101797104
1789063970748579600,0.92757958984375,0.19556353986263275,0.05535086616873741,0.07237100601196289
1789063970758617300,0.937617431640625,0.17989704012870789,0.04653458669781685,0.10307613015174866
1789063970768654300,0.947654296875,0.20234616100788116,0.06811657547950745,0.1156502440571785
1789063970778691300,0.95769140625,0.2531193196773529,0.0970783457159996,0.09451354295015335
1789063970788728600,0.967728515625,0.3158913552761078,0.16567496955394745,0.041455645114183426
1789063970798765300,0.977765380859375,0.3643307089805603,0.21864522993564606,-0.008771434426307678
1789063970808802300,0.98780224609375,0.38421788811683655,0.23050826787948608,-0.05486063286662102
1789063970818839300,0.99783935546875,0.38452768325805664,0.2351384460926056,-0.07593756914138794
1789063970828876500,1.00787646484375,0.37136340141296387,0.2189253866672516,-0.07808274030685425
1789063970838913500,1.01791357421875,0.35699033737182617,0.21607062220573425,-0.0843488946557045
1789063970848950300,1.0279501953125,0.353861927986145,0.2244446724653244,-0.07349145412445068
1789063970858987300,1.0379873046875,0.36592116951942444,0.21418863534927368,-0.039699386805295944
1789063970869024500,1.0480244140625,0.39348992705345154,0.24075046181678772,-0.000018287217244505882
1789063970879061500,1.0580615234375,0.41929754614830017,0.26439031958580017,0.05165787786245346
1789063970889099300,1.068099365234375,0.44024333357810974,0.27090972661972046,0.09398563206195831
1789063970899136300,1.07813623046875,0.45141324400901794,0.30464282631874084,0.11643427610397339
1789063970909173500,1.088173583984375,0.44863077998161316,0.29191717505455017,0.1335594654083252
1789063970919210500,1.09821044921875,0.43676522374153137,0.28839221596717834,0.12157849222421646
1789063970929247500,1.10824755859375,0.4199577271938324,0.25158360600471497,0.10735401511192322
1789063970939284200,1.1182841796875,0.41966181993484497,0.28419971466064453,0.08042117208242416
1789063970949321500,1.128321533203125,0.43271610140800476,0.2965565323829651,0.038550157099962234
1789063970959358500,1.1383583984375,0.4497460722923279,0.33945363759994507,-0.01701587624847889
1789063970969395500,1.1483955078125,0.4524925947189331,0.3086022436618805,0.005190358962863684
1789063970979432400,1.158432373046875,0.4416328966617584,0.2834019660949707,0.0019197040237486362
1789063970989469200,1.16846923828125,0.43642908334732056,0.332619309425354,-0.04541585221886635
1789063970999506400,1.17850634765625,0.41923654079437256,0.337311327457428,-0.029869161546230316
1789063971009543400,1.18854345703125,0.4118089973926544,0.38492119312286377,-0.03493529558181763
1789063971019581400,1.19858154296875,0.4104442596435547,0.3343726098537445,0.006704135797917843
1789063971029618400,1.208618408203125,0.4131945073604584,0.2771972119808197,0.0734243169426918
1789063971039655400,1.218655517578125,0.4289586842060089,0.3477455675601959,0.07805418223142624
1789063971049692400,1.2286923828125,0.441170871257782,0.36439645290374756,0.10563814640045166
1789063971059729400,1.2387294921875,0.4413903057575226,0.37732255458831787,0.1436048150062561
1789063971069766400,1.248766357421875,0.4286438822746277,0.3521873652935028,0.17226627469062805
1789063971079803400,1.258803466796875,0.3857669532299042,0.2908884286880493,0.19970612227916718
1789063971089840400,1.26884033203125,0.35108938813209534,0.35276538133621216,0.16572605073451996
1789063971099877400,1.27887744140625,0.32221779227256775,0.33091139793395996,0.1488034874200821
1789063971109914400,1.288914306640625,0.3064960837364197,0.33524996042251587,0.10741449147462845
1789063971119951400,1.298951416015625,0.2963957190513611,0.2919183075428009,0.0671207383275032
1789063971129988400,1.30898828125,0.2737441956996918,0.2576064169406891,0.017458651214838028
1789063971140025300,1.319025390625,0.24597953259944916,0.30861741304397583,-0.06683158129453659
1789063971150062300,1.329062255859375,0.20850619673728943,0.3605589270591736,-0.0932711735367775
1789063971160100400,1.339100341796875,0.15374380350112915,0.23193471133708954,-0.02076987363398075
1789063971170137300,1.349137451171875,0.0967729240655899,0.12002123147249222,0.03157615289092064
1789063971180174300,1.35917431640625,0.041388288140296936,0.1502535045146942,0.00897228717803955
1789063971190211300,1.36921142578125,-0.006765126250684261,0.22692245244979858,0.005593001842498779
1789063971200248600,1.37924853515625,-0.0507100410759449,0.1751595288515091,0.05718328803777695
1789063971210285300,1.389285400390625,-0.07820291817188263,0.06540080904960632,0.11584766954183578
1789063971220322300,1.399322265625,-0.09944021701812744,0.04363088682293892,0.1442265808582306
1789063971230359300,1.409359375,-0.12117613852024078,0.12324422597885132,0.10281974077224731
1789063971240396500,1.419396484375,-0.16199779510498047,0.15251456201076508,0.06487686187028885
1789063971250433500,1.42943359375,-0.20206239819526672,0.09444805979728699,0.09038382023572922
1789063971260470300,1.43947021484375,-0.21996372938156128,0.019183538854122162,0.1745040863752365
1789063971270507300,1.44950732421875,-0.22865575551986694,0.12186038494110107,0.14113254845142365
1789063971280544500,1.45954443359375,-0.22917257249355316,0.06237149238586426,0.07336090505123138
1789063971290581500,1.46958154296875,-0.22060304880142212,0.0784766897559166,0.04022372514009476
1789063971300619300,1.479619384765625,-0.19940952956676483,0.11156551539897919,0.0664059966802597
1789063971310656300,1.48965625,-0.2100352793931961,-0.0059477947652339935,0.11608114093542099
1789063971320693500,1.499693603515625,-0.23892763257026672,-0.011154865846037865,0.07496500015258789
1789063971330730500,1.50973046875,-0.24273569881916046,0.15365858376026154,0.0028671040199697018
1789063971340767500,1.519767578125,-0.23080332577228546,0.19182242453098297,0.05116831138730049
1789063971350804200,1.52980419921875,-0.23027868568897247,-0.02017824910581112,0.16016162931919098
1789063971360841500,1.539841552734375,-0.23280490934848785,-0.06844028830528259,0.12065287679433823
1789063971370878500,1.54987841796875,-0.2181766927242279,0.23413395881652832,0.02001468650996685
1789063971380915500,1.55991552734375,-0.16815006732940674,0.2550477385520935,0.06822585314512253
1789063971390952400,1.569952392578125,-0.09154477715492249,0.09014613181352615,0.16498436033725739
1789063971400989200,1.5799892578125,0.009905513375997543,0.07294723391532898,0.20935162901878357
1789063971411026400,1.5900263671875,0.10718759149312973,0.053118929266929626,0.17885789275169373
1789063971421063400,1.6000634765625,0.1782846301794052,0.17838647961616516,0.08144302666187286
1789063971431101400,1.610101318359375,0.22916297614574432,0.36816734075546265,0.010238626040518284
1789063971441138400,1.620138427734375,0.23166503012180328,0.2852700650691986,0.03787211701273918
1789063971451175400,1.630175537109375,0.21658088266849518,0.3459254205226898,0.004220414906740189
1789063971461212400,1.64021240234375,0.25628992915153503,0.495349258184433,-0.06847589462995529
1789063971471249400,1.65024951171875,0.35118237137794495,0.42204681038856506,-0.05322397127747536
1789063971481286400,1.660286376953125,0.4689314663410187,0.3616011142730713,-0.012847446836531162
1789063971491323400,1.670323486328125,0.5939445495605469,0.3216957747936249,0.08807916939258575
1789063971501360400,1.6803603515625,0.6535064578056335,0.27661949396133423,0.1207188069820404
1789063971511397400,1.6903974609375,0.6671623587608337,0.4664781093597412,0.06474954634904861
1789063971521434400,1.700434326171875,0.629503071308136,0.6003747582435608,0.08382503688335419
1789063971531471600,1.7104716796875,0.6170466542243958,0.598940908908844,0.10969498008489609
1789063971541508400,1.72050830078125,0.6401575207710266,0.6143598556518555,0.14468100666999817
1789063971551545300,1.73054541015625,0.6910356283187866,0.582202672958374,0.18901145458221436
1789063971561582300,1.740582275390625,0.7707912921905518,0.5382345914840698,0.13181433081626892
1789063971571620400,1.750620361328125,0.824954092502594,0.41836196184158325,0.05399623513221741
1789063971581657300,1.7606572265625,0.8574857711791992,0.5876330137252808,-0.025258202105760574
1789063971591694300,1.7706943359375,0.8344895839691162,0.6536442041397095,-0.042708300054073334
1789063971601731300,1.7807314453125,0.750182032585144,0.603701114654541,-0.041910696774721146
1789063971611768600,1.7907685546875,0.6468420624732971,0.6182510256767273,-0.1038220003247261
1789063971621805300,1.800805419921875,0.5782423615455627,0.662818431854248,-0.14947079122066498
1789063971631842300,1.81084228515625,0.5314727425575256,0.5547148585319519,-0.10061562806367874
1789063971641878500,1.82087841796875,0.5198173522949219,0.4389605224132538,-0.0195514727383852
1789063971651915500,1.83091552734375,0.5044825673103333,0.394673228263855,0.07280588895082474
1789063971661952500,1.840952392578125,0.4661993682384491,0.33657556772232056,0.14591072499752045
1789063971671989800,1.85098974609375,0.41519874334335327,0.4412612318992615,0.15961667895317078
1789063971682026800,1.86102685546875,0.3407707214355469,0.49045026302337646,0.20805707573890686
1789063971692063500,1.8710634765625,0.27632033824920654,0.43147560954093933,0.24373836815357208
1789063971702101500,1.8811015625,0.20936839282512665,0.34957748651504517,0.26736506819725037
1789063971712138800,1.891138671875,0.1279347836971283,0.2704147696495056,0.2200912982225418
1789063971722175500,1.901175537109375,0.029786353930830956,0.19641971588134766,0.15107153356075287
1789063971732212500,1.91121240234375,-0.0860385149717331,0.18125301599502563,0.06318109482526779
1789063971742249500,1.92124951171875,-0.19252729415893555,0.14919571578502655,0.04229260981082916
1789063971752286700,1.93128662109375,-0.2843528091907501,0.0622355155646801,0.0316237211227417
1789063971762323700,1.94132373046875,-0.3384413719177246,0.0458468422293663,0.0088536087423563
1789063971772360400,1.9513603515625,-0.365378201007843,0.14265035092830658,0.022595252841711044
1789063971782397400,1.9613974609375,-0.39887890219688416,0.07428913563489914,0.02400406450033188
1789063971792434400,1.971434326171875,-0.4396201968193054,0.040612928569316864,0.009451488964259624
1789063971802471700,1.9814716796875,-0.4951659142971039,0.05857083946466446,-0.014807697385549545
1789063971812508700,1.9915087890625,-0.5511245131492615,-0.06336811929941177,0.02530590072274208
1789063971822545400,2.00154541015625,-0.6033641695976257,-0.10671604424715042,0.024582598358392715
1789063971832582400,2.01158251953125,-0.6182723045349121,-0.0948154404759407,-0.027051832526922226
1789063971842620700,2.02162060546875,-0.6411910057067871,-0.1454363316297531,-0.003007821273058653
1789063971852657700,2.03165771484375,-0.6753873229026794,-0.113457091152668,0.04344915971159935
1789063971862694400,2.0416943359375,-0.7213220596313477,-0.15316328406333923,0.07270758599042892
1789063971872731600,2.051731689453125,-0.7768268585205078,-0.20721985399723053,0.0993112325668335
1789063971882768600,2.0617685546875,-0.7982305288314819,-0.16855593025684357,0.09594390541315079
1789063971892805600,2.0718056640625,-0.7788581848144531,-0.20734994113445282,0.10389530658721924
1789063971902842600,2.081842529296875,-0.7309525012969971,-0.21183227002620697,0.1360977739095688
1789063971912879400,2.09187939453125,-0.6508070826530457,-0.19341491162776947,0.08259861171245575
1789063971922916600,2.10191650390625,-0.5739682912826538,-0.13151918351650238,0.05668000876903534
1789063971932953600,2.11195361328125,-0.4867985248565674,-0.08734320104122162,0.053409647196531296
1789063971942990600,2.121990478515625,-0.38711559772491455,-0.11886883527040482,0.0458405427634716
1789063971953027600,2.132027587890625,-0.3200920820236206,-0.17147772014141083,0.037011899054050446
1789063971963064600,2.142064697265625,-0.25503355264663696,-0.024261554703116417,0.011994095519185066
1789063971973101600,2.1521015625,-0.21780282258987427,-0.006834361236542463,0.012108610942959785
1789063971983139600,2.1621396484375,-0.1710115373134613,0.03117421269416809,-0.006509029772132635
1789063971993176600,2.172176513671875,-0.11353812366724014,0.06548051536083221,0.005977733992040157
1789063972003213600,2.182213623046875,-0.0482000894844532,0.04116329178214073,-0.013547331094741821
1789063972013250600,2.19225048828125,0.040293823927640915,0.12541186809539795,-0.03851472958922386
1789063972023287600,2.20228759765625,0.11394696682691574,0.1030438169836998,-0.0019919052720069885
1789063972033324500,2.212324462890625,0.17077110707759857,0.10808491706848145,0.019991956651210785
1789063972043361500,2.222361572265625,0.20860880613327026,0.1303090900182724,0.04931113123893738
1789063972053398500,2.2323984375,0.205322727560997,0.1402464061975479,0.0747818648815155
1789063972063435500,2.242435546875,0.18584893643856049,0.21955297887325287,0.0623561255633831
1789063972073472500,2.252472412109375,0.1469108611345291,0.18894100189208984,0.08118920773267746
1789063972083509800,2.262509765625,0.12329117953777313,0.2287943810224533,0.008674371987581253
1789063972093546800,2.272546630859375,0.11450407654047012,0.2192983478307724,-0.05818402022123337
1789063972103583500,2.28258349609375,0.10876667499542236,0.15680943429470062,-0.04874695837497711
1789063972113621500,2.29262158203125,0.09080418944358826,0.07022552937269211,-0.0935828685760498
1789063972123658800,2.30265869140625,0.0801481083035469,0.1505572497844696,-0.16068671643733978
1789063972133695500,2.312695556640625,0.03205248340964317,0.16993147134780884,-0.11988149583339691
1789063972143732500,2.322732421875,-0.03392556682229042,0.09518261253833771,-0.054017871618270874
1789063972153769500,2.33276953125,-0.09363656491041183,0.15896186232566833,-0.040188875049352646
1789063972163806700,2.342806640625,-0.1448661983013153,0.1594313681125641,-0.01898718625307083
1789063972173843700,2.35284375,-0.1831400841474533,0.12628008425235748,0.04582483693957329
1789063972183880400,2.36288037109375,-0.19625988602638245,0.03704672306776047,0.21839898824691772
1789063972193917400,2.37291748046875,-0.24438640475273132,-0.21016491949558258,0.23725098371505737
1789063972203954400,2.382954345703125,-0.2494109719991684,0.04625634476542473,0.033714909106492996
1789063972213991700,2.39299169921875,-0.2514355182647705,0.36620134115219116,0.01101838517934084
1789063972224028700,2.403028564453125,-0.25053390860557556,0.18648160994052887,0.05635952204465866
1789063972234065400,2.4130654296875,-0.22940732538700104,-0.0267941914498806,0.05120018124580383
1789063972244103700,2.423103759765625,-0.17241248488426208,-0.02777736820280552,-0.059354692697525024
1789063972254140700,2.433140625,-0.17538484930992126,-0.21667377650737762,-0.18250246345996857
1789063972264177700,2.443177734375,-0.22369542717933655,-0.09411946684122086,-0.27184370160102844
1789063972274214400,2.45321435546875,-0.38543131947517395,0.0958440750837326,-0.24050946533679962
1789063972284251400,2.46325146484375,-0.5723467469215393,0.23068676888942719,-0.08762629330158234
1789063972294288600,2.47328857421875,-0.686086118221283,-0.02588830329477787,0.1776069849729538
1789063972304325600,2.48332568359375,-0.6132477521896362,-0.20439311861991882,0.31053945422172546
1789063972314362600,2.493362548828125,-0.4027597904205322,-0.10120868682861328,0.26787054538726807
1789063972324399400,2.5033994140625,-0.20400303602218628,-0.02018786408007145,0.15726254880428314
1789063972334436600,2.5134365234375,-0.18455103039741516,0.012350371107459068,0.18651604652404785
1789063972344473600,2.5234736328125,-0.3245033621788025,-0.1699949949979782,0.2292087823152542
1789063972354510600,2.533510498046875,-0.5164887309074402,-0.213215172290802,0.11943141371011734
1789063972364547600,2.543547607421875,-0.6548510193824768,-0.10293517261743546,0.0030660275369882584
1789063972374584600,2.55358447265625,-0.6956820487976074,-0.06480749696493149,-0.029740918427705765
1789063972384622600,2.56362255859375,-0.6539408564567566,-0.20547762513160706,-0.1013110876083374
1789063972394659600,2.57365966796875,-0.5913073420524597,-0.19121213257312775,-0.177532359957695
1789063972404696600,2.583696533203125,-0.5880160331726074,-0.2927621901035309,-0.15730078518390656
1789063972414733600,2.593733642578125,-0.6057305932044983,-0.2530145049095154,-0.16296187043190002
1789063972424770600,2.6037705078125,-0.6229141354560852,-0.07393036782741547,-0.23187577724456787
1789063972434807600,2.6138076171875,-0.6357066035270691,-0.16745391488075256,-0.11849702149629593
1789063972444844500,2.623844482421875,-0.6191189289093018,-0.19858825206756592,-0.042568642646074295
1789063972454881800,2.6338818359375,-0.5842099189758301,-0.19140757620334625,-0.023169642314314842
1789063972464918500,2.64391845703125,-0.5197720527648926,-0.2526286542415619,0.057653553783893585
1789063972474955500,2.65395556640625,-0.5105330348014832,-0.27726155519485474,0.11252133548259735
1789063972484992500,2.663992431640625,-0.5291605591773987,-0.20004349946975708,0.1286025196313858
1789063972495029800,2.67402978515625,-0.5414363741874695,-0.25628572702407837,0.15227243304252625
1789063972505066800,2.684066650390625,-0.5355644226074219,-0.24521665275096893,0.13566826283931732
1789063972515104500,2.6941044921875,-0.49387770891189575,-0.22485998272895813,0.11884613335132599
1789063972525141500,2.7041416015625,-0.4566323757171631,-0.29395434260368347,0.08961989730596542
1789063972535178800,2.7141787109375,-0.4695817232131958,-0.27983373403549194,-0.018246911466121674
1789063972545215500,2.724215576171875,-0.5078544616699219,-0.27583324909210205,-0.03797522187232971
1789063972555252500,2.73425244140625,-0.5574198365211487,-0.2865535318851471,-0.07019706815481186
1789063972565289500,2.74428955078125,-0.571380615234375,-0.26136890053749084,-0.11623311787843704
1789063972575326700,2.75432666015625,-0.5365129113197327,-0.2899121344089508,-0.06422770768404007
1789063972585363700,2.76436376953125,-0.4646819233894348,-0.29548320174217224,-0.042341526597738266
1789063972595400400,2.774400390625,-0.3944106996059418,-0.24149666726589203,-0.043063774704933167
1789063972605437400,2.7844375,-0.35376790165901184,-0.24684526026248932,0.013531497679650784
1789063972615474400,2.794474365234375,-0.3304966688156128,-0.2332620769739151,0.049419987946748734
1789063972625511700,2.80451171875,-0.3210828900337219,-0.21885672211647034,0.09246834367513657
1789063972635548700,2.814548583984375,-0.3088510036468506,-0.2583964169025421,0.10683529824018478
1789063972645585700,2.824585693359375,-0.3003523051738739,-0.2953045666217804,0.06305652856826782
1789063972655623700,2.834623779296875,-0.27494576573371887,-0.2508452236652374,0.04173418879508972
1789063972665660700,2.84466064453125,-0.2546766698360443,-0.24768733978271484,0.028186732903122902
1789063972675698000,2.854697998046875,-0.215758815407753,-0.22542250156402588,0.012900988571345806
1789063972685734700,2.864734619140625,-0.17003747820854187,-0.2326299101114273,0.005435355938971043
1789063972695771600,2.874771728515625,-0.12039615958929062,-0.10843286663293839,-0.05256882682442665
1789063972705808600,2.88480859375,-0.022386353462934494,-0.10065719485282898,-0.07576018571853638
1789063972715845600,2.894845703125,0.05632922798395157,-0.127607062458992,-0.09454479068517685
1789063972725883000,2.9048828125,0.12643933296203613,-0.054969485849142075,-0.0755026564002037
1789063972735919600,2.914919677734375,0.12786465883255005,-0.1835295855998993,-0.014241435565054417
1789063972745956600,2.92495654296875,0.13210225105285645,-0.08635339140892029,-0.04684628173708916
1789063972755993600,2.93499365234375,0.1608356237411499,-0.061069075018167496,0.010370135307312012
1789063972766030800,2.94503076171875,0.19502168893814087,-0.09183888137340546,0.09406168013811111
1789063972776067800,2.95506787109375,0.23992924392223358,-0.10929670184850693,0.12543611228466034
1789063972786105600,2.965105712890625,0.27172335982322693,-0.048532452434301376,0.14008265733718872
1789063972796142600,2.975142578125,0.2840183675289154,-0.02526973932981491,0.1346929520368576
1789063972806179800,2.985179931640625,0.28315338492393494,0.005765447858721018,0.09083543717861176
1789063972816216800,2.995216796875,0.28589215874671936,-0.05092792585492134,0.08446995168924332
1789063972826253600,3.005253662109375,0.31526461243629456,0.02701675333082676,0.013386381790041924
1789063972836290600,3.01529052734375,0.37617963552474976,0.04194483533501625,-0.021277856081724167
1789063972846327800,3.025327880859375,0.42097008228302,-0.0060611567460000515,-0.006740868557244539
1789063972856364800,3.03536474609375,0.4658544659614563,0.07893309742212296,-0.05064334720373154
1789063972866401800,3.04540185546875,0.4653676450252533,0.04779680818319321,-0.031061790883541107
1789063972876438500,3.0554384765625,0.44941771030426025,0.039245400577783585,-0.03144555166363716
1789063972886475800,3.065475830078125,0.47672203183174133,0.16672219336032867,-0.07614818215370178
1789063972896512800,3.0755126953125,0.4652579426765442,0.017364664003252983,-0.05149156600236893
1789063972906549800,3.0855498046875,0.5092198848724365,0.13729900121688843,-0.10226891934871674
1789063972916587500,3.09558740234375,0.5478338599205017,0.04270298033952713,-0.03524886816740036
1789063972926624800,3.105624755859375,0.6037819385528564,0.08005671203136444,-0.030005350708961487
1789063972936661800,3.115661865234375,0.6655390858650208,0.2026366889476776,-0.05734110251069069
1789063972946698800,3.12569873046875,0.6581079959869385,0.11065860092639923,0.02755897119641304
1789063972956735500,3.135735595703125,0.6512815356254578,0.19213108718395233,0.018573733046650887
1789063972966772700,3.145772705078125,0.6308828592300415,0.18486006557941437,0.014857900328934193
1789063972976809700,3.155809814453125,0.6077905893325806,0.12861250340938568,0.020122170448303223
1789063972986846700,3.1658466796875,0.6176056265830994,0.22421617805957794,-0.052380576729774475
1789063972996883700,3.1758837890625,0.5965496301651001,0.09775169938802719,-0.005513467825949192
1789063973006920700,3.185920654296875,0.566571831703186,0.11569824069738388,-0.055836789309978485
1789063973016957700,3.195957763671875,0.5466023683547974,0.17513707280158997,-0.10591167211532593
1789063973026994700,3.20599462890625,0.5016536116600037,0.18688131868839264,-0.07529313862323761
1789063973037031700,3.21603173828125,0.46149367094039917,0.14574666321277618,-0.05449758097529411
1789063973047069700,3.226069580078125,0.4133315682411194,0.11355401575565338,-0.03910595178604126
1789063973057106700,3.236106689453125,0.3378794193267822,0.12805013358592987,0.0208378117531538
1789063973067143700,3.246143798828125,0.27143898606300354,0.07198058813810349,0.047288794070482254
1789063973077180700,3.2561806640625,0.19932778179645538,0.014517828822135925,0.08629371970891953
1789063973087218000,3.266218017578125,0.1700747311115265,0.08086836338043213,0.08994337171316147
1789063973097254700,3.276254638671875,0.17183427512645721,-0.009074579924345016,0.1585724949836731
1789063973107291600,3.286291748046875,0.21307818591594696,0.061544548720121384,0.11910604685544968
1789063973117328600,3.29632861328125,0.30662599205970764,0.11811355501413345,0.048207368701696396
1789063973127365600,3.30636572265625,0.3587304949760437,0.08392392098903656,0.08314967155456543
1789063973137403000,3.31640283203125,0.4140219986438751,0.17851407825946808,0.05008626729249954
1789063973147439600,3.326439697265625,0.43282315135002136,0.13424326479434967,0.030140072107315063
1789063973157476600,3.3364765625,0.45216941833496094,0.22918415069580078,-0.019727885723114014
1789063973167513600,3.346513671875,0.49499404430389404,0.2941878139972687,-0.0530838817358017
1789063973177552000,3.3565517578125,0.5351092219352722,0.23194389045238495,-0.026106858626008034
1789063973187588600,3.366588623046875,0.597146213054657,0.2888464629650116,-0.06935480982065201
1789063973197625600,3.37662548828125,0.6289057731628418,0.24762526154518127,-0.051948659121990204
1789063973207662600,3.38666259765625,0.6465187072753906,0.311399906873703,-0.03023841418325901
1789063973217699800,3.396699951171875,0.659045398235321,0.36815187335014343,-0.044454365968704224
1789063973227736800,3.40673681640625,0.6658805012702942,0.32447564601898193,0.0084265461191535
1789063973237773600,3.416773681640625,0.691367506980896,0.36689844727516174,0.010813537985086441
1789063973247810600,3.426810546875,0.687747061252594,0.3894854784011841,0.07832805812358856
1789063973257847800,3.436847900390625,0.6573087573051453,0.39849627017974854,0.10442464053630829
1789063973267884800,3.446884765625,0.6520135402679443,0.4081849455833435,0.07302522659301758
1789063973277921800,3.456921875,0.6431369781494141,0.3323434293270111,0.10468621551990509
1789063973287958500,3.46695849609375,0.6788293123245239,0.39142274856567383,0.07867544889450073
1789063973297995800,3.476995849609375,0.6625403761863708,0.3641791343688965,0.020377784967422485
1789063973308033800,3.48703369140625,0.5781312584877014,0.41516730189323425,0.0065581584349274635
1789063973318070500,3.497070556640625,0.4515610337257385,0.4036254286766052,0.0016273159999400377
1789063973328107500,3.507107421875,0.31801554560661316,0.3382066786289215,0.019789261743426323
1789063973338144800,3.517144775390625,0.2624127268791199,0.39363211393356323,-0.022664988413453102
1789063973348181800,3.527181640625,0.26794490218162537,0.28754642605781555,0.002069386886432767
1789063973358218800,3.53721875,0.3051633834838867,0.28926390409469604,0.03419855982065201
1789063973368255500,3.54725537109375,0.3225569725036621,0.22937758266925812,0.038229797035455704
1789063973378292700,3.557292724609375,0.2739793062210083,0.2708542048931122,0.09315243363380432
1789063973388329700,3.567329833984375,0.19230805337429047,0.3825451731681824,0.07158008962869644
1789063973398366700,3.57736669921875,0.0743957981467247,0.25924187898635864,0.08851753175258636
1789063973408403700,3.58740380859375,-0.008951002731919289,0.36751481890678406,0.00024208170361816883
1789063973418440700,3.597440673828125,-0.06899436563253403,0.2553344666957855,-0.007479754276573658
1789063973428477700,3.607477783203125,-0.09639851003885269,0.15370841324329376,0.06762994825839996
1789063973438515700,3.617515625,-0.12513162195682526,0.09232494235038757,0.044300924986600876
1789063973448552700,3.627552734375,-0.16501910984516144,0.027439899742603302,0.05141383036971092
1789063973458589700,3.637589599609375,-0.17944517731666565,0.23457178473472595,0.042272262275218964
1789063973468626700,3.647626708984375,-0.23414503037929535,0.2020770162343979,0.05372590944170952
1789063973478663700,3.65766357421875,-0.28142091631889343,0.2345028668642044,0.06500519812107086
1789063973488700700,3.66770068359375,-0.3659057915210724,0.03348734602332115,0.11745089292526245
1789063973498738000,3.677738037109375,-0.4459889233112335,0.07283741980791092,0.0774475485086441
1789063973508774700,3.687774658203125,-0.5184494256973267,0.015887107700109482,0.08719691634178162
1789063973518811600,3.697811767578125,-0.6152290105819702,-0.05688030645251274,0.06335257738828659
1789063973528848600,3.7078486328125,-0.6882165670394897,0.026667822152376175,0.026171023026108742
1789063973538885600,3.7178857421875,-0.7746651768684387,-0.2117420881986618,0.11563326418399811
1789063973548923000,3.7279228515625,-0.8270345330238342,-0.12529653310775757,0.054459888488054276
1789063973558960600,3.737960693359375,-0.8848943710327148,-0.1449759602546692,-0.009150244295597076
1789063973568997600,3.74799755859375,-0.9417452216148376,-0.054764363914728165,-0.01963171921670437
1789063973579035000,3.758034912109375,-0.9964068531990051,-0.17640744149684906,-0.010336222127079964
1789063973589072000,3.76807177734375,-1.0176798105239868,-0.28678658604621887,-0.003202511230483651
1789063973599108600,3.778108642578125,-1.0237923860549927,-0.28535833954811096,0.004070848226547241
1789063973609145600,3.7881455078125,-1.046007752418518,-0.34432703256607056,0.012326695956289768
1789063973619182600,3.7981826171875,-1.0698989629745483,-0.22171002626419067,-0.028760019689798355
1789063973629219800,3.8082197265625,-1.1122100353240967,-0.34790244698524475,0.009376567788422108
1789063973639257000,3.818257080078125,-1.1061164140701294,-0.27791616320610046,-0.006562184542417526
1789063973649294000,3.828294189453125,-1.0867164134979248,-0.3473190367221832,0.005777522921562195
1789063973659331000,3.8383310546875,-1.042825698852539,-0.2857177257537842,-0.01783512718975544
1789063973669368300,3.848368408203125,-1.0124374628067017,-0.2408791035413742,-0.0713438019156456
1789063973679405300,3.8584052734375,-1.0232772827148438,-0.35005325078964233,-0.015316479839384556
1789063973689443000,3.868443115234375,-1.0403910875320435,-0.3468156158924103,-0.029749566689133644
1789063973699480000,3.87847998046875,-1.0494601726531982,-0.36100149154663086,-0.01661032810807228
1789063973709517300,3.888517333984375,-1.0324909687042236,-0.34022653102874756,-0.06733347475528717
1789063973719554300,3.89855419921875,-0.9987466335296631,-0.38050389289855957,-0.00017760763876140118
1789063973729591000,3.908591064453125,-0.9644081592559814,-0.3622819781303406,-0.018051665276288986
1789063973739628000,3.9186279296875,-0.9502334594726562,-0.394418329000473,-0.026128500699996948
1789063973749665300,3.928665283203125,-0.9432075023651123,-0.3157508373260498,-0.05317601189017296
1789063973759702300,3.938702392578125,-0.9329237341880798,-0.3488893508911133,-0.049252644181251526
1789063973769739300,3.9487392578125,-0.9015063047409058,-0.38103920221328735,-0.03472951799631119
1789063973779776000,3.95877587890625,-0.8690069317817688,-0.3795156180858612,-0.0445009246468544
1789063973789813000,3.96881298828125,-0.8406957983970642,-0.3753357231616974,-0.029048537835478783
1789063973799850200,3.978850341796875,-0.83033686876297,-0.38125139474868774,-0.0159713514149189
1789063973809888000,3.988887939453125,-0.8285626173019409,-0.3794628381729126,0.045857563614845276
1789063973819925000,3.998925048828125,-0.8276507258415222,-0.38009533286094666,0.06760600209236145
1789063973829962200,4.008962158203125,-0.8206989169120789,-0.36973655223846436,0.09523240476846695
1789063973839999200,4.018999267578125,-0.8007169365882874,-0.4168640971183777,0.11381647735834122
1789063973850036200,4.0290361328125,-0.7843838334083557,-0.45776572823524475,0.10360623896121979
1789063973860073200,4.0390732421875,-0.7622031569480896,-0.3557054102420807,0.06042414531111717
1789063973870110000,4.04910986328125,-0.784430742263794,-0.48506370186805725,0.1018059030175209
1789063973880147200,4.059147216796875,-0.7904462814331055,-0.4294710159301758,0.052897755056619644
1789063973890184200,4.06918408203125,-0.8008704781532288,-0.41896161437034607,0.03612232953310013
1789063973900221200,4.07922119140625,-0.8134598135948181,-0.4772433042526245,0.07614511251449585
1789063973910258200,4.089258056640625,-0.8142291307449341,-0.5217599868774414,0.049349572509527206
1789063973920295200,4.099295166015625,-0.782863199710846,-0.4483502507209778,0.04623127728700638
1789063973930332200,4.109332275390625,-0.7424377202987671,-0.4842851459980011,0.06320168823003769
1789063973940370200,4.1193701171875,-0.7048299312591553,-0.4900282621383667,0.0565299391746521
1789063973950407200,4.1294072265625,-0.6895885467529297,-0.4687511622905731,0.03670712932944298
1789063973960444200,4.139444091796875,-0.6757491230964661,-0.44133949279785156,0.01691930927336216
1789063973970481200,4.149481201171875,-0.6408905386924744,-0.39001113176345825,0.00821507815271616
1789063973980518100,4.15951806640625,-0.5866597890853882,-0.4281845986843109,-0.002918799640610814
1789063973990555100,4.16955517578125,-0.5089796185493469,-0.43332263827323914,-0.01209232397377491
1789063974000592100,4.179592041015625,-0.44833865761756897,-0.42751455307006836,0.03075527399778366
1789063974010629000,4.189629150390625,-0.4053795039653778,-0.4067800045013428,0.06046359986066818
1789063974020666000,4.199666015625,-0.36587682366371155,-0.3487721085548401,0.0432816818356514
1789063974030703000,4.209703125,-0.3230026066303253,-0.34567949175834656,0.12213220447301865
1789063974040740400,4.219740234375,-0.26383569836616516,-0.3196050226688385,0.1322263777256012
1789063974050777000,4.229777099609375,-0.19982577860355377,-0.3031426668167114,0.11273553967475891
1789063974060815000,4.239815185546875,-0.12273766100406647,-0.25987374782562256,0.09629584848880768
1789063974070852000,4.24985205078125,-0.05695924907922745,-0.2712107002735138,0.1036660298705101
1789063974080889300,4.259889404296875,-0.010879904963076115,-0.21765613555908203,0.020478729158639908
1789063974090926000,4.269926025390625,0.020814204588532448,-0.1912364512681961,-0.014631782658398151
1789063974100963000,4.279963134765625,0.07221268117427826,-0.16994847357273102,-0.013162249699234962
1789063974111000000,4.29,0.11370785534381866,-0.19066141545772552,-0.029895411804318428
1789063974121037300,4.300037353515625,0.16586719453334808,-0.11947458982467651,-0.0624200664460659
1789063974131074300,4.31007421875,0.1990588754415512,-0.10936135053634644,-0.030734775587916374
1789063974141111000,4.320111083984375,0.19412191212177277,0.0015180220361799002,-0.007351157255470753
1789063974151148000,4.33014794921875,0.21549074351787567,0.02689475379884243,0.03720518574118614
1789063974161185300,4.340185302734375,0.24942795932292938,-0.015028994530439377,0.08301448822021484
1789063974171222300,4.35022216796875,0.3148519992828369,0.028544016182422638,0.08385621011257172
1789063974181260000,4.360260009765625,0.43403592705726624,0.034128930419683456,0.12247417867183685
1789063974191297000,4.370297119140625,0.5550215244293213,0.08477041870355606,0.1380210518836975
1789063974201334300,4.380334228515625,0.6253303289413452,0.007503061555325985,0.16544228792190552
1789063974211371300,4.390371337890625,0.6896249651908875,0.10914842784404755,0.1393265426158905
1789063974221408300,4.400408203125,0.706995964050293,0.0935702696442604,0.12454546988010406
1789063974231445000,4.410445068359375,0.7481944561004639,0.18319453299045563,0.04338885098695755
1789063974241482200,4.420482177734375,0.7349428534507751,0.12445079535245895,0.043596845120191574
1789063974251519200,4.430519287109375,0.7396990060806274,0.23530273139476776,-0.023345086723566055
1789063974261556200,4.44055615234375,0.7093373537063599,0.12715309858322144,-0.05100467801094055
1789063974271593200,4.45059326171875,0.695896327495575,0.14466793835163116,-0.05147382989525795
1789063974281630000,4.4606298828125,0.6679661273956299,0.09512035548686981,-0.08210764080286026
1789063974291667200,4.470667236328125,0.6394770741462708,0.2216123789548874,-0.1307828277349472
1789063974301705200,4.480705322265625,0.5434256196022034,0.12261416018009186,-0.08628460764884949
1789063974311742000,4.490741943359375,0.4909677505493164,0.14148679375648499,-0.03364429622888565
1789063974321779200,4.500779296875,0.4754505753517151,0.1348765641450882,-0.015720155090093613
1789063974331816200,4.510816162109375,0.4561568796634674,0.08997580409049988,-0.004069501534104347
1789063974341853200,4.520853271484375,0.4365626573562622,0.09295028448104858,-0.003406374715268612
1789063974351890200,4.53089013671875,0.3590394854545593,0.03492868319153786,0.041551753878593445
1789063974361927200,4.54092724609375,0.30966901779174805,0.05047834664583206,-0.033124081790447235
1789063974371964200,4.550964111328125,0.22712945938110352,0.029155781492590904,-0.018873736262321472
1789063974382001200,4.561001220703125,0.16134512424468994,0.0806749016046524,-0.019793860614299774
1789063974392038100,4.5710380859375,0.06451474875211716,-0.06917599588632584,0.06367768347263336
1789063974402075100,4.5810751953125,0.02600942738354206,-0.04485707730054855,0.0005980496061965823
1789063974412112100,4.591112060546875,0.01601213775575161,-0.06658204644918442,-0.016771789640188217
1789063974422150100,4.601150146484375,0.02895670011639595,-0.03721723333001137,0.010540525428950787
1789063974432187100,4.611187255859375,0.009273712523281574,-0.124979168176651,0.06165916100144386
1789063974442224400,4.621224365234375,-0.008152947761118412,-0.05350178852677345,-0.012216124683618546
1789063974452261000,4.63126123046875,-0.05896826460957527,-0.11346620321273804,-0.014704969711601734
1789063974462298000,4.641298095703125,-0.062062859535217285,-0.0036297172773629427,-0.0885927751660347
1789063974472335000,4.651335205078125,-0.05650699511170387,-0.0639544278383255,-0.07363149523735046
1789063974482372000,4.6613720703125,-0.05098067224025726,-0.08401495218276978,0.007376544643193483
1789063974492409300,4.671409423828125,-0.032758183777332306,-0.1466127336025238,0.036822572350502014
1789063974502446000,4.681446044921875,-0.004616825841367245,-0.05821922421455383,0.021795952692627907
1789063974512483000,4.691483154296875,0.038185086101293564,-0.06289570033550262,0.028928853571414948
1789063974522520000,4.70152001953125,0.10322187095880508,0.0374641939997673,0.03695961460471153
1789063974532557300,4.711557373046875,0.13918215036392212,-0.0307337436825037,0.058811359107494354
1789063974542595000,4.721594970703125,0.16935549676418304,-0.007237471640110016,0.05916476249694824
1789063974552632000,4.731632080078125,0.16230739653110504,-0.03783775493502617,0.0241532139480114
1789063974562669000,4.7416689453125,0.1742119938135147,0.0012406716123223305,0.017347771674394608
1789063974572706300,4.751706298828125,0.19270206987857819,-0.04373381286859512,0.028715426102280617
1789063974582743000,4.761742919921875,0.24280625581741333,0.011834906414151192,0.011685043573379517
1789063974592780000,4.771780029296875,0.2809436321258545,0.010108289308845997,-0.0015384593280032277
1789063974602817000,4.781817138671875,0.30482739210128784,0.07524707913398743,-0.06459438800811768
1789063974612854300,4.791854248046875,0.33229899406433105,0.07008791714906693,-0.07960961014032364
1789063974622891300,4.801891357421875,0.3595620393753052,0.11028727144002914,-0.037578001618385315
1789063974632928300,4.81192822265625,0.3893360197544098,0.01863943412899971,-0.0194292850792408
1789063974642964700,4.82196484375,0.4126671552658081,0.06707087904214859,-0.05588769167661667
1789063974653002000,4.832001953125,0.4195251166820526,0.09590176492929459,-0.057536687701940536
1789063974663040000,4.8420400390625,0.3977513909339905,0.09396404772996902,0.009846348315477371
1789063974673077000,4.852076904296875,0.37963706254959106,0.0775986760854721,0.06884194165468216
1789063974683114000,4.862114013671875,0.37821120023727417,0.1138157993555069,0.03212600201368332
1789063974693151000,4.87215087890625,0.40124422311782837,0.11238965392112732,0.04562239721417427
1789063974703188000,4.88218798828125,0.4187542200088501,0.11646801978349686,0.04501333087682724
1789063974713225000,4.892224853515625,0.4104757308959961,0.09366302937269211,0.008436956442892551
1789063974723262000,4.902261962890625,0.3787827789783478,0.07984708249568939,0.0375964380800724
1789063974733299000,4.912298828125,0.3577406108379364,0.08800993859767914,0.013538241386413574
1789063974743336000,4.9223359375,0.36160585284233093,0.07825223356485367,-0.01898306980729103
1789063974753373000,4.932373046875,0.381533682346344,0.14948172867298126,-0.040941622108221054
1789063974763410000,4.942409912109375,0.3967922627925873,0.10185880959033966,-0.009594617411494255
1789063974773448000,4.952447998046875,0.3947702944278717,0.09447167068719864,-0.013726318255066872
1789063974783485000,4.96248486328125,0.38537147641181946,0.11873973160982132,-0.0466829389333725
1789063974793522000,4.97252197265625,0.382337749004364,0.1293470412492752,-0.05319177359342575
1789063974803559000,4.982558837890625,0.3928135633468628,0.14145350456237793,-0.04120675101876259
1789063974813596000,4.992595947265625,0.41110682487487793,0.12117166817188263,-0.04478763788938522
1789063974823633000,5.0026328125,0.4073552191257477,0.10476446151733398,-0.040161192417144775
1789063974833670000,5.012669921875,0.3775826096534729,0.11172549426555634,-0.023661568760871887
1789063974843707000,5.022706787109375,0.330652117729187,0.07938139885663986,0.0013391224201768637
1789063974853744000,5.032744140625,0.30011165142059326,0.09395759552717209,0.07132129371166229
1789063974863780900,5.04278076171875,0.310104101896286,0.0741916075348854,0.08370685577392578
1789063974873817900,5.05281787109375,0.3450578451156616,0.15387336909770966,0.0907568633556366
1789063974883854800,5.062854736328125,0.3646501898765564,0.14542555809020996,0.11942605674266815
1789063974893893000,5.07289306640625,0.355780690908432,0.10430575162172318,0.2010824978351593
1789063974903929900,5.082929931640625,0.31534644961357117,0.10897480696439743,0.18367129564285278
1789063974913966800,5.092966796875,0.2832728624343872,0.09824559092521667,0.15872825682163239
1789063974924003800,5.10300390625,0.27622056007385254,0.14131395518779755,0.1418057382106781
1789063974934041000,5.113041015625,0.25866538286209106,0.08800936490297318,0.13333730399608612
1789063974944078000,5.123078125,0.2211928367614746,0.0648965910077095,0.07976782321929932
1789063974954114800,5.13311474609375,0.15468370914459229,0.08622116595506668,0.006488840561360121
1789063974964151800,5.14315185546875,0.10462800413370132,0.11417210847139359,-0.10338066518306732
1789063974974189000,5.15318896484375,0.09519902616739273,0.12814734876155853,-0.1343187838792801
1789063974984226000,5.16322607421875,0.12457075715065002,0.087774358689785,-0.20624090731143951
1789063974994263000,5.173262939453125,0.16181018948554993,0.06880566477775574,-0.19919373095035553
1789063975004300800,5.18330078125,0.1431659311056137,0.07840369641780853,-0.15109357237815857
1789063975014338000,5.193338134765625,0.09910983592271805,0.10600073635578156,-0.14930415153503418
1789063975024375000,5.203375,0.0521756149828434,0.1268407702445984,-0.12518416345119476
1789063975034412000,5.213412109375,0.025928249582648277,0.08497418463230133,-0.010855371132493019
1789063975044448800,5.22344873046875,0.03288016468286514,0.11711747944355011,-0.0060020266100764275
1789063975054486000,5.233486083984375,0.04237152636051178,0.032832659780979156,0.0503946952521801
1789063975064523000,5.24352294921875,0.03111700713634491,0.08131684362888336,0.07916188985109329
1789063975074560000,5.25356005859375,0.006972400471568108,0.03553665801882744,0.13504444062709808
1789063975084597000,5.263596923828125,-0.04019990563392639,0.04301827773451805,0.1597532480955124
1789063975094634000,5.273634033203125,-0.07193490862846375,0.09026766568422318,0.11567242443561554
1789063975104671000,5.2836708984375,-0.11477264761924744,0.07220743596553802,0.08442129194736481
1789063975114709000,5.293708984375,-0.1380700320005417,0.015333205461502075,0.09498734772205353
1789063975124745700,5.303745849609375,-0.16403958201408386,0.02354293130338192,0.06708195805549622
1789063975134783000,5.313782958984375,-0.17962391674518585,0.01821797713637352,0.0040365057066082954
1789063975144820000,5.323820068359375,-0.20175637304782867,0.011137697845697403,-0.03380940854549408
1789063975154857000,5.33385693359375,-0.21008242666721344,-0.037680160254240036,-0.0592707023024559
1789063975164894000,5.34389404296875,-0.21796856820583344,-0.009830417111515999,-0.059208646416664124
1789063975174931000,5.353930908203125,-0.23026716709136963,-0.07055473327636719,-0.0454113706946373
1789063975184968000,5.363968017578125,-0.26307278871536255,0.014916760846972466,-0.06308890879154205
1789063975195005000,5.3740048828125,-0.31098318099975586,-0.07517348974943161,-0.020655319094657898
1789063975205042000,5.3840419921875,-0.35903939604759216,-0.013362592086195946,0.001887539983727038
1789063975215079000,5.394078857421875,-0.38900184631347656,-0.09483519941568375,0.012983782216906548
1789063975225117000,5.404116943359375,-0.403320848941803,-0.1231565847992897,0.07010433077812195
1789063975235154000,5.41415380859375,-0.4068370759487152,-0.19173017144203186,0.05429012328386307
1789063975245191000,5.42419091796875,-0.4057856500148773,-0.161367729306221,0.08953413367271423
1789063975255228200,5.434228271484375,-0.44980746507644653,-0.2343875765800476,0.11128053814172745
1789063975265265000,5.444264892578125,-0.46428361535072327,-0.119386687874794,0.042978450655937195
1789063975275302000,5.454302001953125,-0.4798322319984436,-0.1477208435535431,0.02129650115966797
1789063975285339000,5.4643388671875,-0.4376312494277954,-0.1507057100534439,0.01973642036318779
1789063975295376100,5.474376220703125,-0.4079563319683075,-0.20978954434394836,0.008259201422333717
1789063975305413000,5.4844130859375,-0.3750324845314026,-0.1778784841299057,-0.03438759595155716
1789063975315449900,5.494449951171875,-0.3718097507953644,-0.18220628798007965,-0.1115647628903389
1789063975325486800,5.50448681640625,-0.3400217294692993,-0.18822850286960602,-0.12589018046855927
1789063975335525000,5.514525146484375,-0.323402464389801,-0.15450601279735565,-0.08424633741378784
1789063975345561900,5.524561767578125,-0.29924681782722473,-0.16713418066501617,-0.11278210580348969
1789063975355598800,5.534598876953125,-0.2732655107975006,-0.0851035788655281,-0.1191638931632042
1789063975365635800,5.5446357421875,-0.21496598422527313,-0.14967910945415497,-0.06223456189036369
1789063975375673000,5.554673095703125,-0.13926073908805847,-0.11640378087759018,-0.018797535449266434
1789063975385710000,5.5647099609375,-0.0817423164844513,-0.13354840874671936,0.01631384715437889
1789063975395747000,5.5747470703125,-0.03813876211643219,-0.04372922331094742,0.005203780718147755
1789063975405783800,5.58478369140625,-0.03024914860725403,-0.08892732858657837,0.03385859355330467
1789063975415820800,5.59482080078125,0.02208656631410122,0.0013410618994385004,0.03373008966445923
1789063975425858000,5.604858154296875,0.06055193394422531,-0.0504600815474987,0.09184612333774567
1789063975435895000,5.61489501953125,0.1330067664384842,-0.021881626918911934,0.05922238528728485
1789063975445932800,5.624932861328125,0.16233429312705994,-0.02539806440472603,0.0890287533402443
1789063975455970000,5.634969970703125,0.21489699184894562,0.1056491956114769,-0.00557847460731864
1789063975466007000,5.645007080078125,0.24209079146385193,0.05265841260552406,0.015537729486823082
1789063975476044000,5.6550439453125,0.2631668150424957,0.007592696696519852,0.08204968273639679
1789063975486080800,5.665080810546875,0.2752296030521393,0.012222335673868656,0.045904725790023804
1789063975496117800,5.67511767578125,0.2807624638080597,0.09284578263759613,-0.07456760108470917
1789063975506155000,5.685155029296875,0.3126617968082428,0.12021402269601822,-0.07392071932554245
1789063975516192000,5.69519189453125,0.3271969258785248,0.03623621165752411,0.00729493098333478
1789063975526229000,5.70522900390625,0.34880658984184265,0.09903940558433533,-0.034569960087537766
1789063975536265700,5.715265625,0.3317926526069641,0.11363744735717773,-0.0035555714275687933
1789063975546303000,5.725302978515625,0.33647820353507996,0.16520769894123077,-0.029541630297899246
1789063975556341000,5.735341064453125,0.34292080998420715,0.11520496010780334,0.006245154421776533
1789063975566378000,5.7453779296875,0.36521387100219727,0.14345844089984894,0.024507781490683556
1789063975576415000,5.7554150390625,0.3931003510951996,0.14264263212680817,0.026866938918828964
1789063975586452000,5.765451904296875,0.41501152515411377,0.17430149018764496,-0.015924200415611267
1789063975596489000,5.775489013671875,0.41243836283683777,0.1975625455379486,-0.0247182697057724
1789063975606526000,5.78552587890625,0.40050795674324036,0.16763579845428467,0.054368291050195694
1789063975616563000,5.79556298828125,0.4015498161315918,0.22082893550395966,0.047632522881031036
1789063975626600000,5.805599853515625,0.4044859707355499,0.20393410325050354,-0.0008298152824863791
1789063975636637000,5.815636962890625,0.4058533012866974,0.23714327812194824,0.0037156548351049423
1789063975646674000,5.825673828125,0.391387015581131,0.14335019886493683,0.07189444452524185
1789063975656711000,5.8357109375,0.3920827805995941,0.23172640800476074,0.013966222293674946
1789063975666748700,5.845748779296875,0.3877013623714447,0.20290328562259674,-0.011953791603446007
1789063975676785700,5.85578564453125,0.4139445722103119,0.29558244347572327,-0.05061931908130646
1789063975686823000,5.865822998046875,0.4283067286014557,0.23082688450813293,-0.009657238610088825
1789063975696860000,5.87585986328125,0.4383001923561096,0.28545668721199036,-0.07394890487194061
1789063975706897000,5.88589697265625,0.4141676723957062,0.27124738693237305,-0.1025637686252594
1789063975716933600,5.89593359375,0.4011998176574707,0.26767659187316895,-0.08984991163015366
1789063975726971000,5.905970947265625,0.3731367290019989,0.1810583621263504,0.0013947857078164816
1789063975737007900,5.9160078125,0.38547220826148987,0.2278478592634201,-0.04855421558022499
1789063975747044900,5.926044921875,0.3973885178565979,0.27786120772361755,-0.03528980910778046
1789063975757081900,5.936081787109375,0.38972926139831543,0.2619725167751312,0.025667818263173103
1789063975767120000,5.946119873046875,0.3730112910270691,0.26902642846107483,0.07404626905918121
1789063975777156900,5.956156982421875,0.3436315953731537,0.21191193163394928,0.12357790023088455
1789063975787193900,5.96619384765625,0.36241835355758667,0.3024444878101349,0.07283269613981247
1789063975797230800,5.97623095703125,0.3614963889122009,0.28743794560432434,0.14827889204025269
1789063975807267800,5.986267822265625,0.35871899127960205,0.20766107738018036,0.19113686680793762
1789063975817304800,5.996304931640625,0.3194890022277832,0.21583715081214905,0.18348287045955658
1789063975827341800,6.006341796875,0.29534396529197693,0.25047340989112854,0.14333918690681458
1789063975837378800,6.01637890625,0.26552635431289673,0.2849492132663727,0.14645788073539734
1789063975847415800,6.026415771484375,0.24113048613071442,0.22117957472801208,0.09640856832265854
1789063975857452800,6.036452880859375,0.23369340598583221,0.28993234038352966,0.031238336116075516
1789063975867490800,6.04649072265625,0.2005080133676529,0.20672106742858887,-0.04208701103925705
1789063975877527800,6.05652783203125,0.18424634635448456,0.31744471192359924,-0.15312814712524414
1789063975887564800,6.066564697265625,0.13846607506275177,0.18432393670082092,-0.17129623889923096
1789063975897601800,6.076601806640625,0.15194810926914215,0.27723294496536255,-0.22572176158428192
1789063975907638800,6.086638671875,0.12590959668159485,0.15892653167247772,-0.15415862202644348
1789063975917675800,6.09667578125,0.12415570020675659,0.2596483528614044,-0.17857836186885834
1789063975927713000,6.106713134765625,0.07451917231082916,0.20267987251281738,-0.05817125737667084
1789063975937749800,6.116749755859375,0.042580075562000275,0.1680152416229248,0.023743998259305954
1789063975947786800,6.126786865234375,-0.0004840386100113392,0.22449129819869995,0.0653228610754013
1789063975957823700,6.13682373046875,-0.03122401051223278,0.15106333792209625,0.16490279138088226
1789063975967861000,6.146861083984375,-0.05337485298514366,0.15720991790294647,0.20776157081127167
1789063975977898800,6.156898681640625,-0.08623554557561874,0.06554834544658661,0.20904205739498138
1789063975987935700,6.166935791015625,-0.10127095878124237,0.18307895958423615,0.11199620366096497
1789063975997972700,6.17697265625,-0.14696864783763885,0.11724360287189484,0.09491584450006485
1789063976008010000,6.187010009765625,-0.1796347051858902,0.108050636947155,0.06565435975790024
1789063976018047000,6.197046875,-0.22493287920951843,0.10113968700170517,0.009271231479942799
1789063976028083700,6.207083740234375,-0.26274123787879944,0.05690404772758484,-0.10044035315513611
1789063976038120700,6.21712060546875,-0.30076608061790466,0.040524572134017944,-0.12049711495637894
1789063976048158000,6.227157958984375,-0.341993123292923,0.046540386974811554,-0.1707315295934677
1789063976058195000,6.23719482421875,-0.3674313724040985,-0.05113477632403374,-0.160267174243927
1789063976068232000,6.24723193359375,-0.39831286668777466,-0.029169555753469467,-0.09762588888406754
1789063976078269700,6.257269775390625,-0.3744552731513977,0.011097871698439121,-0.10760359466075897
1789063976088307000,6.267306884765625,-0.35911625623703003,0.022481555119156837,-0.06827136874198914
1789063976098344000,6.277343994140625,-0.3360534608364105,0.0699690505862236,-0.007223072461783886
1789063976108380700,6.287380615234375,-0.3509298861026764,-0.028221160173416138,0.12740983068943024
1789063976118417700,6.297417724609375,-0.3791573941707611,0.0027641637716442347,0.1048627495765686
1789063976128455000,6.307454833984375,-0.39512598514556885,-0.06733343005180359,0.16085651516914368
1789063976138492000,6.317491943359375,-0.43806564807891846,-0.06188187748193741,0.19742605090141296
1789063976148529000,6.32752880859375,-0.47870972752571106,-0.1369052529335022,0.1898336410522461
1789063976158565600,6.337565673828125,-0.534288227558136,-0.11841444671154022,0.16034257411956787
1789063976168602600,6.3476025390625,-0.5298942923545837,-0.10884518176317215,0.1060124933719635
1789063976178640000,6.357639892578125,-0.5293890237808228,-0.13407468795776367,0.0661613866686821
1789063976188678000,6.367677978515625,-0.4984969198703766,-0.15551020205020905,-0.04322236403822899
1789063976198714600,6.377714599609375,-0.47749990224838257,-0.10349768400192261,-0.1464868038892746
1789063976208751900,6.387751953125,-0.45951157808303833,-0.0865037813782692,-0.20950625836849213
1789063976218788900,6.397788818359375,-0.46928244829177856,-0.11525127291679382,-0.17879681289196014
1789063976228825900,6.407825927734375,-0.5116093754768372,-0.16962796449661255,-0.14361698925495148
1789063976238862800,6.41786279296875,-0.5236924290657043,-0.12757296860218048,-0.16114772856235504
1789063976248899800,6.42789990234375,-0.5285478830337524,-0.14803004264831543,-0.09586671739816666
1789063976258936800,6.437936767578125,-0.478624552488327,-0.1462663859128952,-0.0290782880038023
1789063976268973800,6.447973876953125,-0.45001766085624695,-0.24711576104164124,0.07555065304040909
1789063976279010800,6.4580107421875,-0.43759745359420776,-0.17075157165527344,0.06627295911312103
1789063976289048800,6.468048828125,-0.46007826924324036,-0.18860433995723724,0.13556015491485596
1789063976299085800,6.4780859375,-0.48088863492012024,-0.16932758688926697,0.13692602515220642
1789063976309122800,6.488122802734375,-0.45112329721450806,-0.1462363749742508,0.11838162690401077
1789063976319159800,6.498159912109375,-0.4423995614051819,-0.20697927474975586,0.1720695048570633
1789063976329197000,6.508197021484375,-0.3965575098991394,-0.24518099427223206,0.12404417991638184
1789063976339233800,6.51823388671875,-0.38983353972435,-0.2490091770887375,0.11654054373502731
1789063976349270800,6.528270751953125,-0.38324621319770813,-0.247532457113266,0.07663334161043167
1789063976359307800,6.538307861328125,-0.4160831570625305,-0.27898654341697693,0.04506336525082588
1789063976369344800,6.5483447265625,-0.4245336353778839,-0.2688708007335663,-0.0011392852757126093
1789063976379382000,6.558382080078125,-0.39573368430137634,-0.2815646529197693,-0.06798528879880905
1789063976389419800,6.568419677734375,-0.3329493999481201,-0.21606183052062988,-0.11252851784229279
1789063976399456800,6.578456787109375,-0.26857879757881165,-0.21881230175495148,-0.13638806343078613
1789063976409494000,6.588493896484375,-0.2332545965909958,-0.17572848498821259,-0.108114093542099
1789063976419530800,6.59853076171875,-0.2169104367494583,-0.20762331783771515,-0.09510807693004608
1789063976429567700,6.608567626953125,-0.21127118170261383,-0.1780555695295334,-0.04931182786822319
1789063976439604700,6.618604736328125,-0.20516641438007355,-0.2114555388689041,-0.005294166039675474
1789063976449641700,6.628641845703125,-0.15676826238632202,-0.18907912075519562,0.01673337258398533
1789063976459679000,6.638678955078125,-0.12664030492305756,-0.2189086377620697,0.0670338049530983
1789063976469715700,6.6487158203125,-0.09001678228378296,-0.19029377400875092,0.10096140950918198
1789063976479752700,6.658752685546875,-0.09334657341241837,-0.16971547901630402,0.16558656096458435
1789063976489791000,6.668791015625,-0.07872288674116135,-0.1431128978729248,0.1217791736125946
1789063976499828000,6.678827880859375,-0.054061610251665115,-0.14501357078552246,0.13889022171497345
1789063976509864700,6.68886474609375,0.004630465060472488,-0.07741296291351318,0.1174568384885788
1789063976519901700,6.698901611328125,0.014838870614767075,-0.14045782387256622,0.1283392310142517
1789063976529939000,6.70893896484375,0.03223969787359238,-0.06946353614330292,0.04075424745678902
1789063976539976000,6.718975830078125,0.04098610207438469,-0.0864189863204956,0.00557619659230113
1789063976550013000,6.729012939453125,0.07998783141374588,-0.08067561686038971,-0.02882358990609646
1789063976560049700,6.739049560546875,0.10948818922042847,-0.06813938170671463,-0.1385909616947174
1789063976570086700,6.749086669921875,0.11686914414167404,-0.01345430314540863,-0.21813160181045532
1789063976580124000,6.7591240234375,0.09269800037145615,-0.04749474674463272,-0.20887281000614166
1789063976590162000,6.769161865234375,0.08558522909879684,-0.07202006131410599,-0.19959568977355957
1789063976600198700,6.77919873046875,0.09670988470315933,-0.024967804551124573,-0.12186753004789352
1789063976610236000,6.78923583984375,0.10821474343538284,-0.021191176027059555,-0.09932174533605576
1789063976620273000,6.79927294921875,0.15356627106666565,-0.06166970729827881,-0.005107138771563768
1789063976630310000,6.809309814453125,0.18774288892745972,-0.031453218311071396,0.08151883631944656
1789063976640347000,6.819346923828125,0.21846161782741547,0.07875725626945496,0.11502596735954285
1789063976650384000,6.8293837890625,0.21611563861370087,0.03034498728811741,0.18374139070510864
1789063976660420900,6.8394208984375,0.21501339972019196,0.036059893667697906,0.16189950704574585
1789063976670457900,6.849457763671875,0.20265820622444153,0.035997845232486725,0.1315397322177887
1789063976680495000,6.8594951171875,0.1722339391708374,-0.0214039608836174,0.12003883719444275
1789063976690532900,6.869532958984375,0.13232620060443878,-0.006108362227678299,0.054104033857584
1789063976700569900,6.87956982421875,0.09214269369840622,-0.0827467069029808,0.06379743665456772
1789063976710607000,6.889607177734375,0.06941501051187515,-0.01485846471041441,0.002825958887115121
1789063976720644000,6.89964404296875,0.07168876379728317,0.0409354567527771,-0.02322472259402275
1789063976730680800,6.909680908203125,0.05186232924461365,0.038207050412893295,-0.03369973599910736
1789063976740717800,6.9197177734375,0.06959348917007446,0.04152027890086174,-0.11749748885631561
1789063976750754800,6.9297548828125,0.07151149213314056,0.08331459760665894,-0.09989959001541138
1789063976760792000,6.9397919921875,0.05716541036963463,-0.003957787528634071,-0.11599884927272797
1789063976770829000,6.9498291015625,0.003606578102335334,-0.022446783259510994,-0.17069298028945923
1789063976780865800,6.95986572265625,-0.07291371375322342,0.02567196637392044,-0.1921009123325348
1789063976790904000,6.969904052734375,-0.13046357035636902,-0.033923983573913574,-0.14546896517276764
1789063976800941000,6.979941162109375,-0.1821892112493515,-0.10623076558113098,-0.041064366698265076
1789063976810978000,6.98997802734375,-0.1835639327764511,-0.13752156496047974,-0.03646482154726982
1789063976821014800,7.000014892578125,-0.1754150390625,-0.06312356889247894,0.020693732425570488
1789063976831051800,7.0100517578125,-0.1814955621957779,-0.09689804166555405,0.08881659805774689
1789063976841089000,7.020089111328125,-0.20132030546665192,-0.07606840133666992,0.10563892126083374
1789063976851126000,7.0301259765625,-0.2534564733505249,-0.10388565063476562,0.14610858261585236
1789063976861163000,7.0401630859375,-0.28011584281921387,-0.17670196294784546,0.1259113997220993
1789063976871199700,7.05019970703125,-0.29167741537094116,-0.06856483966112137,0.0333511084318161
1789063976881237000,7.060237060546875,-0.28219977021217346,-0.1492903083562851,-0.01575065404176712
1789063976891275000,7.07027490234375,-0.27987906336784363,-0.1047835648059845,-0.07112549245357513
1789063976901312000,7.08031201171875,-0.27894261479377747,-0.1494380384683609,-0.2077600508928299
1789063976911349000,7.090348876953125,-0.2625942826271057,-0.18517233431339264,-0.19726453721523285
1789063976921386000,7.100385986328125,-0.2407083511352539,-0.18444687128067017,-0.20528638362884521
1789063976931423000,7.110423095703125,-0.17225952446460724,-0.006445712875574827,-0.3632395565509796
1789063976941460000,7.1204599609375,-0.14262926578521729,-0.06362932175397873,-0.19241611659526825
1789063976951497000,7.1304970703125,-0.11667250841856003,-0.16224618256092072,-0.0512629896402359
1789063976961534000,7.140533935546875,-0.10339286923408508,-0.040713854134082794,0.011135444045066833
1789063976971571000,7.150571044921875,-0.08658832311630249,-0.11146898567676544,0.14697663486003876
1789063976981608000,7.16060791015625,-0.05057347193360329,-0.035003598779439926,0.19445669651031494
1789063976991646000,7.17064599609375,-0.004120754078030586,-0.03856397792696953,0.3013165593147278
1789063977001683000,7.180682861328125,0.024718932807445526,-0.11808433383703232,0.37310877442359924
1789063977011720000,7.190719970703125,0.04971243068575859,0.030237484723329544,0.2905087172985077
1789063977021757000,7.2007568359375,0.029221659526228905,-0.02687302976846695,0.19054417312145233
1789063977031794000,7.2107939453125,0.0317402109503746,0.009998967871069908,0.09943236410617828
1789063977041831000,7.220830810546875,0.023458894342184067,-0.09122748672962189,0.044890597462654114
1789063977051868000,7.230867919921875,0.038066864013671875,-0.09359743446111679,-0.0726592019200325
1789063977061905000,7.24090478515625,0.03573691472411156,-0.06653322279453278,-0.24553972482681274
1789063977071942000,7.25094189453125,0.06247531622648239,0.0858808159828186,-0.35991743206977844
1789063977081979100,7.260979248046875,0.05319023132324219,0.03842179849743843,-0.2738437056541443
1789063977092017000,7.271016845703125,0.044754136353731155,0.013885032385587692,-0.21718843281269073
1789063977102054000,7.281053955078125,0.051981665194034576,0.055204398930072784,-0.2336508333683014
1789063977112091000,7.2910908203125,0.06538588553667068,0.00043356046080589294,-0.12491770833730698
1789063977122128100,7.301128173828125,0.10262256115674973,0.01518799364566803,-0.011684155091643333
1789063977132164900,7.311164794921875,0.11058301478624344,-0.013528871349990368,0.11488843709230423
1789063977142201900,7.321201904296875,0.11669204384088516,-0.03963591158390045,0.21201379597187042
1789063977152238800,7.33123876953125,0.11665929108858109,0.04268000274896622,0.2500421106815338
1789063977162276000,7.341276123046875,0.12997128069400787,0.02797730267047882,0.26206356287002563
1789063977172313000,7.35131298828125,0.14452038705348969,0.06260185688734055,0.2345251590013504
1789063977182349800,7.361349853515625,0.14190024137496948,0.0802951231598854,0.16646777093410492
1789063977192388000,7.37138818359375,0.1198202446103096,0.06305887550115585,0.11721181124448776
1789063977202425000,7.381425048828125,0.06035512685775757,-0.011658020317554474,0.05272389203310013
1789063977212461800,7.3914619140625,0.008164094761013985,-0.04636992886662483,-0.04252326488494873
1789063977222498800,7.401498779296875,-0.0322229340672493,-0.03204430267214775,-0.10542980581521988
1789063977232535800,7.411535888671875,-0.03662034496665001,-0.02811640501022339,-0.2291456162929535
1789063977242573000,7.421572998046875,-0.0038861059583723545,-0.03596675023436546,-0.2317158430814743
1789063977252610000,7.431610107421875,0.013599144294857979,-0.04754031449556351,-0.17947448790073395
1789063977262647000,7.44164697265625,0.017117835581302643,-0.005931907799094915,-0.18172934651374817
1789063977272683800,7.451683837890625,-0.05179944634437561,0.020578261464834213,-0.10673393309116364
1789063977282721000,7.461720947265625,-0.13316725194454193,-0.05846124514937401,-0.01902756467461586
1789063977292759000,7.471759033203125,-0.1880672425031662,-0.048158008605241776,0.07398466765880585
1789063977302795800,7.481795654296875,-0.19723491370677948,-0.10433658957481384,0.13641582429409027
1789063977312832800,7.491832763671875,-0.15213210880756378,-0.06834534555673599,0.11900769919157028
1789063977322870000,7.5018701171875,-0.12194141745567322,-0.16407780349254608,0.1620486080646515
1789063977332907000,7.511906982421875,-0.08170025795698166,-0.11873163282871246,0.1356191188097
1789063977342944000,7.521944091796875,-0.10026026517152786,-0.06291038542985916,0.10191795974969864
1789063977352980700,7.531980712890625,-0.11942356824874878,-0.0725073516368866,0.0391634963452816
1789063977363018000,7.54201806640625,-0.12741824984550476,0.026373444125056267,0.025162432342767715
1789063977373055000,7.552054931640625,-0.1283799111843109,-0.09164507687091827,-0.0026622735895216465
1789063977383093000,7.562093017578125,-0.10098432749509811,-0.12863709032535553,-0.025551674887537956
1789063977393129700,7.572129638671875,-0.06840161979198456,-0.12548230588436127,-0.10828570276498795
1789063977403167000,7.5821669921875,-0.01563514769077301,-0.03302183747291565,-0.15707534551620483
1789063977413204000,7.592203857421875,-0.005238698795437813,-0.06499068439006805,-0.05809229612350464
1789063977423241000,7.602240966796875,0.007313142530620098,-0.04021577164530754,-0.1088387593626976
1789063977433278000,7.61227783203125,0.018513333052396774,0.04643949493765831,-0.10762302577495575
1789063977443315000,7.62231494140625,0.05376012250781059,-0.035886771976947784,-0.006049115210771561
1789063977453352000,7.63235205078125,0.1275017261505127,-0.01895039901137352,-0.008731983602046967
1789063977463389000,7.642388916015625,0.17963486909866333,0.03388778865337372,0.0568912997841835
1789063977473426000,7.652426025390625,0.19449636340141296,-0.05689244717359543,0.10197488218545914
1789063977483464000,7.6624638671875,0.17268487811088562,0.009545309469103813,0.09970945864915848
1789063977493501000,7.6725009765625,0.11257094889879227,0.0070688361302018166,0.11721175163984299
1789063977503538000,7.682537841796875,0.1143437996506691,0.055671557784080505,0.07786507159471512
1789063977513575000,7.692574951171875,0.1421503871679306,-0.018625307828187943,0.10381757467985153
1789063977523612000,7.70261181640625,0.21268409490585327,0.016134021803736687,0.09274012595415115
1789063977533649000,7.71264892578125,0.2457331269979477,-0.004809609614312649,0.11557859182357788
1789063977543686000,7.722685791015625,0.22469672560691833,-0.02105674147605896,0.05576353520154953
1789063977553723000,7.732722900390625,0.19351696968078613,0.06175904721021652,0.03278524801135063
1789063977563760000,7.742760009765625,0.1423117220401764,0.017315011471509933,0.00273419008590281
1789063977573796900,7.752796875,0.11742715537548065,0.07938797026872635,-0.044268473982810974
1789063977583835000,7.7628349609375,0.0624084509909153,-0.01382233016192913,-0.06150926277041435
1789063977593872000,7.772871826171875,0.05837509036064148,-0.0067170169204473495,-0.12123650312423706
1789063977603909000,7.7829091796875,0.06809541583061218,-0.00005821394734084606,-0.14535020291805267
1789063977613945900,7.79294580078125,0.10331838577985764,-0.03642314672470093,-0.13952240347862244
1789063977623982800,7.80298291015625,0.12362364679574966,0.0032110826577991247,-0.1220904067158699
1789063977634019800,7.813019775390625,0.11187511682510376,0.002018252620473504,-0.057304754853248596
1789063977644057600,7.8230576171875,0.08828916400671005,0.002505488460883498,0.02559264376759529
1789063977654094300,7.83309423828125,0.0800006091594696,0.03165591508150101,0.041258953511714935
1789063977664131600,7.843131591796875,0.08478810638189316,0.02475598454475403,0.04558899626135826
1789063977674168600,7.85316845703125,0.09563010185956955,0.019513819366693497,0.08205832540988922
1789063977684206600,7.86320654296875,0.08619964867830276,-0.029677215963602066,0.12912915647029877
1789063977694243300,7.873243408203125,0.07574647665023804,-0.031634371727705,0.0735148936510086
1789063977704280600,7.883280517578125,0.08544079959392548,0.04957402125000954,0.03561636060476303
1789063977714317600,7.893317626953125,0.07415644824504852,-0.001481704181060195,-0.005444258451461792
1789063977724354600,7.9033544921875,0.10040970146656036,0.012264418415725231,-0.05832399055361748
1789063977734391600,7.9133916015625,0.05950034782290459,-0.0819113478064537,-0.011252887547016144
1789063977744428500,7.923428466796875,0.06000649556517601,0.009503006003797054,-0.12842722237110138
1789063977754465500,7.933465576171875,0.022246865555644035,-0.0340665765106678,-0.08555111289024353
1789063977764502500,7.94350244140625,0.014143615029752254,-0.01021620538085699,-0.0814361721277237
1789063977774539500,7.95353955078125,0.0505484938621521,0.006378217600286007,-0.07492447644472122
1789063977784577500,7.96357763671875,0.07480117678642273,-0.022510208189487457,0.03498870134353638
1789063977794614500,7.973614501953125,0.10912053287029266,-0.07430949062108994,0.09615245461463928
1789063977804651500,7.983651611328125,0.09311389178037643,-0.044830579310655594,0.06806258112192154
1789063977814688500,7.9936884765625,0.08826827257871628,0.043074775487184525,0.02738705463707447
1789063977824725500,8.0037255859375,0.059665270149707794,0.003675067098811269,0.12028768658638
1789063977834762500,8.013762451171875,0.05428089201450348,-0.021923769265413284,0.14855660498142242
1789063977844799500,8.023799560546875,0.041794054210186005,-0.02670222893357277,0.1745847463607788
1789063977854836500,8.03383642578125,0.012852152809500694,-0.05534132942557335,0.09510909765958786
1789063977864873500,8.04387353515625,0.0031906412914395332,-0.04846769943833351,0.008839789777994156
1789063977874910700,8.05391064453125,-0.006047598086297512,-0.09488339722156525,0.0161480363458395
1789063977884948500,8.063948486328124,-0.016272829845547676,-0.0940268486738205,-0.0327286459505558
1789063977894985500,8.0739853515625,-0.0017295738216489553,-0.0614132434129715,-0.126345694065094
1789063977905022700,8.084022705078125,0.0374920591711998,0.01447624433785677,-0.19587655365467072
1789063977915059500,8.0940595703125,0.0846736878156662,0.009199456311762333,-0.17545942962169647
1789063977925096400,8.104096435546875,0.0785260945558548,-0.003197646467015147,-0.13865768909454346
1789063977935133400,8.114133544921875,0.06896801292896271,0.006730617955327034,-0.17700719833374023
1789063977945170700,8.124170654296876,0.04850437492132187,-0.02870168723165989,-0.10453201085329056
1789063977955207700,8.134207763671874,0.053163040429353714,0.013904893770813942,-0.1098647192120552
1789063977965244400,8.144244384765624,0.06441319733858109,-0.030699992552399635,-0.0329592302441597
1789063977975281400,8.154281494140625,0.04813915863633156,0.006169076077640057,0.05381454899907112
1789063977985319700,8.164319580078125,0.03297821804881096,-0.023917175829410553,0.10353769361972809
1789063977995356700,8.174356689453125,0.014115048572421074,-0.03394317999482155,0.17112818360328674
1789063978005393400,8.184393310546875,0.008882833644747734,-0.009764278307557106,0.1581277847290039
1789063978015430400,8.194430419921876,0.019656118005514145,0.017987191677093506,0.16495558619499207
1789063978025467600,8.204467529296876,-0.009311084635555744,-0.03971392288804054,0.1986970454454422
1789063978035504600,8.214504638671874,-0.029507700353860855,-0.022697919979691505,0.12333064526319504
1789063978045541600,8.224541748046875,-0.08684366196393967,-0.054253071546554565,0.059912607073783875
1789063978055578400,8.234578369140625,-0.09974215179681778,-0.049194131046533585,-0.023065898567438126
1789063978065615400,8.244615478515625,-0.08746883273124695,-0.08200471848249435,-0.05236269161105156
1789063978075653600,8.254653564453125,-0.0686248391866684,-0.10268282890319824,-0.09690006077289581
1789063978085690600,8.264690673828126,-0.048051461577415466,-0.12738686800003052,-0.12926079332828522
1789063978095727400,8.274727294921876,-0.07839205861091614,-0.02642216347157955,-0.12317653745412827
1789063978105764600,8.2847646484375,-0.11745002120733261,-0.028652790933847427,-0.10637375712394714
1789063978115801600,8.294801513671874,-0.15491272509098053,-0.07270626723766327,-0.05340773984789848
1789063978125838600,8.304838623046875,-0.1324564814567566,-0.05659820884466171,-0.042384371161460876
1789063978135875600,8.31487548828125,-0.06921811401844025,-0.06663885712623596,-0.037083081901073456
1789063978145912300,8.324912353515625,-0.05006599426269531,-0.07896430790424347,-0.009264369495213032
1789063978155949600,8.334949462890625,-0.0564836822450161,-0.1055690199136734,0.028590867295861244
1789063978165986600,8.344986572265626,-0.11552552878856659,-0.10659393668174744,0.1115792840719223
1789063978176024300,8.3550244140625,-0.13801538944244385,-0.042129725217819214,0.09759608656167984
1789063978186061600,8.3650615234375,-0.13699154555797577,-0.0605158731341362,0.12935605645179749
1789063978196098600,8.3750986328125,-0.12317480146884918,-0.049891725182533264,0.07994083315134048
1789063978206135600,8.385135498046875,-0.08512844890356064,-0.1418481320142746,0.05283522978425026
1789063978216172500,8.395172607421875,-0.05710027739405632,-0.10773757845163345,0.05554952472448349
1789063978226209500,8.40520947265625,-0.03489881008863449,-0.0855649784207344,-0.083785779774189
1789063978236246500,8.41524658203125,-0.02394975535571575,0.0026578211691230536,-0.1889936774969101
1789063978246283500,8.425283447265626,-0.04422357678413391,-0.0500362403690815,-0.16654756665229797
1789063978256320500,8.435320556640624,-0.05510152503848076,-0.10831046849489212,-0.14640048146247864
1789063978266357500,8.445357421875,-0.05034998431801796,-0.08073563128709793,-0.18541230261325836
1789063978276395500,8.4553955078125,-0.025644639506936073,-0.07927116006612778,-0.19109655916690826
1789063978286432500,8.4654326171875,0.015068266540765762,-0.03622935712337494,-0.0936780497431755
1789063978296469500,8.475469482421875,0.05167900770902634,-0.021234964951872826,0.030622858554124832
1789063978306506800,8.4855068359375,0.08816312998533249,-0.10111459344625473,0.12740182876586914
1789063978316543500,8.49554345703125,0.12279221415519714,-0.04276074096560478,0.14875559508800507
1789063978326580500,8.50558056640625,0.17494842410087585,0.013185828924179077,0.11383169144392014
1789063978336617500,8.515617431640624,0.2484082728624344,0.047584548592567444,0.12347260117530823
1789063978346654500,8.525654541015625,0.2860838770866394,0.012613572180271149,0.23539051413536072
1789063978356691700,8.535691650390625,0.3020109236240387,-0.03339972719550133,0.17117050290107727
1789063978366728400,8.545728515625,0.34555548429489136,0.12912309169769287,0.0661875382065773
1789063978376766500,8.555766357421875,0.39370810985565186,0.13800927996635437,0.05322300270199776
1789063978386803700,8.5658037109375,0.45289304852485657,0.12366142123937607,0.06070774421095848
1789063978396840400,8.57584033203125,0.4683774411678314,0.14790549874305725,0.01115137618035078
1789063978406877400,8.58587744140625,0.46420735120773315,0.16864150762557983,-0.09943708032369614
1789063978416914400,8.59591455078125,0.45342209935188293,0.17064021527767181,-0.09800908714532852
1789063978426951700,8.60595166015625,0.49038559198379517,0.2768807113170624,-0.15198113024234772
1789063978436988700,8.61598876953125,0.5511589050292969,0.20894987881183624,-0.12663182616233826
1789063978447025700,8.626025634765625,0.5880360007286072,0.27185171842575073,-0.10266783088445663
1789063978457062400,8.6360625,0.5917081832885742,0.24294470250606537,-0.07257571071386337
1789063978467099400,8.646099365234376,0.5629366636276245,0.23111017048358917,0.01625719852745533
1789063978477137700,8.6561376953125,0.559540867805481,0.29129332304000854,0.036029037088155746
1789063978487174400,8.66617431640625,0.5302273035049438,0.24541543424129486,0.07851509004831314
1789063978497211400,8.67621142578125,0.516840934753418,0.3297537565231323,0.07335095852613449
1789063978507248600,8.68624853515625,0.47387591004371643,0.26058152318000793,0.07805005460977554
1789063978517285600,8.69628564453125,0.44735854864120483,0.25219178199768066,0.02785346657037735
1789063978527322600,8.706322509765625,0.42827656865119934,0.2712431252002716,0.016381433233618736
1789063978537359400,8.716359375,0.39503365755081177,0.17187446355819702,-0.004335830919444561
1789063978547396400,8.726396240234376,0.36100247502326965,0.2911238968372345,-0.04428928345441818
1789063978557433600,8.73643359375,0.3065964877605438,0.21411672234535217,-0.03687770664691925
1789063978567470600,8.746470703125,0.27670302987098694,0.22364425659179688,-0.05353750288486481
1789063978577508400,8.75650830078125,0.2498732954263687,0.21738289296627045,-0.07038066536188126
1789063978587545600,8.766545654296875,0.23450782895088196,0.18404512107372284,-0.051303185522556305
1789063978597582600,8.77658251953125,0.1947297900915146,0.18616099655628204,-0.027586404234170914
1789063978607619600,8.78661962890625,0.16008584201335907,0.1703774631023407,-0.07606029510498047
1789063978617656600,8.796656494140626,0.14849789440631866,0.22663088142871857,-0.06474212557077408
1789063978627693300,8.806693359375,0.11903887242078781,0.17570333182811737,0.026742763817310333
1789063978637730600,8.81673046875,0.10732575505971909,0.1487817019224167,0.03094656392931938
1789063978647767300,8.826767333984375,0.0690736398100853,0.12683464586734772,0.12989073991775513
1789063978657804300,8.83680419921875,0.012081723660230637,0.10307498276233673,0.1251862496137619
1789063978667842300,8.84684228515625,-0.03800315409898758,0.12978528439998627,0.08924080431461334
1789063978677879300,8.85687939453125,-0.05593448504805565,0.14094392955303192,0.12629683315753937
1789063978687916300,8.866916259765626,-0.055917900055646896,0.03601054102182388,0.19307638704776764
1789063978697953300,8.876953369140624,-0.06334305554628372,0.046069830656051636,0.16297388076782227
1789063978707990500,8.886990478515624,-0.08920224010944366,0.004294327460229397,0.05573492497205734
1789063978718027300,8.89702734375,-0.08178932964801788,0.16510185599327087,-0.06239970028400421
1789063978728064300,8.907064208984375,-0.0934663712978363,0.13241137564182281,-0.06954068690538406
1789063978738101200,8.917101318359375,-0.09810586273670197,0.037647586315870285,-0.10550188273191452
1789063978748138500,8.927138427734375,-0.09040317684412003,0.07148388773202896,-0.12755396962165833
1789063978758175500,8.937175537109376,-0.09131477773189545,0.006308085285127163,-0.14174675941467285
1789063978768213200,8.947213134765626,-0.06464070081710815,0.021629299968481064,-0.16781309247016907
1789063978778250200,8.957250244140624,-0.0412546843290329,0.09585053473711014,-0.14438793063163757
1789063978788287500,8.96728759765625,-0.04218015819787979,0.049393098801374435,-0.05054153874516487
1789063978798324200,8.97732421875,-0.03085985966026783,0.07359378039836884,0.02678600512444973
1789063978808361200,8.987361328125,-0.022332368418574333,0.0684906616806984,0.06620215624570847
1789063978818398200,8.997398193359375,0.016458969563245773,0.12707966566085815,0.01966608129441738
1789063978828435500,9.007435546875,0.04214830324053764,0.08480203151702881,0.08716665953397751
1789063978838472400,9.017472412109376,0.05036761984229088,0.014622677117586136,0.14500786364078522
1789063978848509200,9.02750927734375,0.0627744123339653,0.04455939680337906,0.1185673400759697
1789063978858546200,9.037546142578124,0.025640364736318588,0.04864655062556267,0.09855475276708603
1789063978868584400,9.04758447265625,0.0229917261749506,0.058290936052799225,0.04288853332400322
1789063978878621400,9.057621337890625,0.0625748261809349,0.1190168708562851,0.008559854701161385
1789063978888658200,9.067658203125,0.1083068698644638,0.08175959438085556,0.007029382511973381
1789063978898695200,9.077695068359375,0.1294907033443451,0.07930176705121994,-0.029162444174289703
1789063978908732400,9.087732421875,0.0844019427895546,0.07826714962720871,-0.028826644644141197
1789063978918769400,9.097769287109376,0.012955457903444767,0.06539342552423477,-0.04738381877541542
1789063978928806400,9.107806396484374,-0.03304457291960716,0.09222740679979324,-0.05477599427103996
1789063978938843100,9.117843017578124,-0.015582491643726826,0.09713561087846756,-0.0825335830450058
1789063978948880400,9.12788037109375,0.05705810710787773,0.1208481714129448,-0.1043570265173912
1789063978958917400,9.13791748046875,0.09022831916809082,0.06547759473323822,-0.03162369877099991
1789063978968955400,9.147955322265625,0.09396201372146606,0.0405421182513237,0.013520038686692715
1789063978978992000,9.1579921875,0.07847360521554947,0.13963381946086884,-0.005808119662106037
1789063978989029400,9.168029296875,0.05114838480949402,0.13133782148361206,-0.013998164795339108
1789063978999066400,9.17806640625,0.05922575294971466,0.17297233641147614,0.030808188021183014
1789063979009103400,9.188103271484374,0.054867926985025406,0.06377910077571869,0.12067808955907822
1789063979019140400,9.198140380859375,0.07584457844495773,0.046420883387327194,0.08847221732139587
1789063979029177300,9.20817724609375,0.09331321716308594,0.14055684208869934,0.027469106018543243
1789063979039214300,9.21821435546875,0.07625140994787216,0.0835108608007431,-0.020173247903585434
1789063979049251300,9.228251220703125,0.07052098959684372,0.15383575856685638,-0.06078533083200455
1789063979059288300,9.238288330078126,0.06687059998512268,0.1412067711353302,-0.04389876127243042
1789063979069326300,9.248326416015624,0.0663439929485321,0.07054053992033005,-0.010872172191739082
1789063979079363300,9.25836328125,0.0923449695110321,0.10810788720846176,-0.07059116661548615
1789063979089400300,9.268400390625,0.07643524557352066,0.127560555934906,-0.1244671642780304
1789063979099437300,9.278437255859375,0.06181901693344116,0.11959158629179001,-0.1271178126335144
1789063979109474300,9.288474365234375,0.025497809052467346,0.05914550647139549,-0.0335560068488121
1789063979119511300,9.29851123046875,0.0016281628049910069,0.05147374048829079,0.012199762277305126
1789063979129548300,9.30854833984375,0.003082981565967202,0.089016854763031,0.004394728224724531
1789063979139585300,9.318585205078126,0.0049543846398591995,0.07299581170082092,0.06232540309429169
1789063979149622300,9.328622314453124,-0.020960137248039246,0.03424375131726265,0.14495456218719482
1789063979159659300,9.3386591796875,-0.055554334074258804,0.06444293260574341,0.16762951016426086
1789063979169697300,9.348697265625,-0.11578714847564697,-0.015609425492584705,0.2222379446029663
1789063979179734300,9.358734375,-0.12197846174240112,-0.007370403967797756,0.18716758489608765
1789063979189771500,9.368771484375,-0.1295853704214096,-0.0023582428693771362,0.20485055446624756
1789063979199808300,9.378808349609375,-0.1550244241952896,-0.08035743236541748,0.15084724128246307
1789063979209845200,9.38884521484375,-0.18414680659770966,-0.006973817944526672,0.003598652081564069
1789063979219882200,9.39888232421875,-0.21438699960708618,0.03202497959136963,-0.07290197908878326
1789063979229919500,9.40891943359375,-0.22283411026000977,-0.05285355821251869,-0.11134891211986542
1789063979239956500,9.41895654296875,-0.20135438442230225,-0.030949058011174202,-0.21406251192092896
1789063979249993200,9.4289931640625,-0.20116868615150452,-0.050115685909986496,-0.26957839727401733
1789063979260030200,9.4390302734375,-0.20685267448425293,-0.06929416954517365,-0.2540825307369232
1789063979270068500,9.449068359375,-0.2347426861524582,-0.1158401295542717,-0.17688815295696259
1789063979280105500,9.45910546875,-0.23312455415725708,-0.04075124114751816,-0.1133776307106018
1789063979290142200,9.46914208984375,-0.20430922508239746,-0.018876375630497932,-0.05131290853023529
1789063979300179200,9.47917919921875,-0.1724330484867096,-0.012964691035449505,0.06697671860456467
1789063979310216400,9.489216552734375,-0.14077916741371155,-0.018368901684880257,0.08642882853746414
1789063979320253400,9.49925341796875,-0.10212791711091995,0.04044514521956444,0.07469627261161804
1789063979330290400,9.50929052734375,-0.12321845442056656,-0.034920383244752884,0.11332922428846359
1789063979340327200,9.5193271484375,-0.1256057173013687,-0.0670066848397255,0.0619182363152504
1789063979350364200,9.5293642578125,-0.14196264743804932,-0.00431122025474906,0.04780762270092964
1789063979360401400,9.5394013671875,-0.15055561065673828,-0.03373755142092705,-0.008900664746761322
1789063979370439200,9.549439208984374,-0.1588067263364792,-0.07703056186437607,-0.045732393860816956
1789063979380476200,9.55947607421875,-0.16584838926792145,-0.06099593639373779,-0.008566648699343204
1789063979390513400,9.569513427734375,-0.13556167483329773,-0.02346719428896904,-0.04457492008805275
1789063979400550400,9.57955029296875,-0.12846647202968597,-0.0750102773308754,0.012292889878153801
1789063979410587400,9.58958740234375,-0.098699189722538,0.003474481636658311,0.004717246629297733
1789063979420624400,9.599624267578125,-0.07902508974075317,-0.03249896690249443,0.03975565731525421
1789063979430661000,9.6096611328125,-0.07461298257112503,0.04923873394727707,0.009346255101263523
1789063979440698400,9.619698486328126,-0.057848382741212845,-0.036089472472667694,0.03072291798889637
1789063979450735400,9.6297353515625,-0.06842931360006332,-0.04475485533475876,0.0639430433511734
1789063979460772400,9.6397724609375,-0.09659171104431152,-0.032396987080574036,0.043441496789455414
1789063979470810400,9.649810302734375,-0.12381681799888611,-0.058392658829689026,0.04331555962562561
1789063979480847400,9.659847412109375,-0.12996366620063782,-0.038291383534669876,0.02748918905854225
1789063979490884400,9.66988427734375,-0.10257000476121902,-0.023647019639611244,-0.03025997057557106
1789063979500921300,9.67992138671875,-0.07557593286037445,0.027237199246883392,-0.022237196564674377
1789063979510958300,9.689958251953126,-0.04649787023663521,0.006865298841148615,-0.0782509371638298
1789063979520995300,9.699995361328124,-0.025544648990035057,-0.02686736360192299,-0.10364790260791779
1789063979531032300,9.7100322265625,-0.0752415582537651,0.002805514959618449,-0.07961849123239517
1789063979541069300,9.7200693359375,-0.1348913013935089,0.03975128382444382,-0.13872335851192474
1789063979551106300,9.730106201171875,-0.17875486612319946,-0.032891906797885895,-0.12929540872573853
1789063979561143300,9.740143310546875,-0.19676876068115234,-0.08710001409053802,-0.051674649119377136
1789063979571181300,9.750181396484376,-0.16322961449623108,-0.11268740892410278,-0.00344752985984087
1789063979581218300,9.76021826171875,-0.1570684015750885,-0.07401777803897858,0.052809350192546844
1789063979591255600,9.770255615234374,-0.15884453058242798,-0.021348588168621063,0.039876654744148254
1789063979601292300,9.780292236328124,-0.16076840460300446,-0.03589877113699913,0.09640118479728699
1789063979611329300,9.790329345703125,-0.16863052546977997,0.028124719858169556,0.16006915271282196
1789063979621366300,9.8003662109375,-0.15791024267673492,-0.09564942121505737,0.15485388040542603
1789063979631403300,9.8104033203125,-0.14515900611877441,-0.10963962227106094,0.10204946994781494
1789063979641440500,9.8204404296875,-0.13012465834617615,-0.026970570906996727,0.031620580703020096
1789063979651476700,9.830476806640625,-0.13350079953670502,-0.06629404425621033,0.013667642138898373
1789063979661513700,9.840513671875,-0.13554157316684723,-0.08525414764881134,0.005706388503313065
1789063979671551000,9.850551025390626,-0.1251303106546402,-0.03161848708987236,-0.033863067626953125
1789063979681589000,9.860589111328125,-0.08560287952423096,-0.059808045625686646,-0.06788735091686249
1789063979691625700,9.870625732421875,-0.07907368242740631,-0.02299112267792225,-0.07807525992393494
1789063979701663000,9.8806630859375,-0.08554942160844803,-0.013914004899561405,-0.12719567120075226
1789063979711700000,9.890699951171875,-0.10797812789678574,-0.061695631593465805,-0.043987005949020386
1789063979721737000,9.900737060546875,-0.11400273442268372,-0.030817879363894463,0.017504587769508362
1789063979731774000,9.91077392578125,-0.06704798340797424,-0.018022341653704643,-0.025238798931241035
1789063979741810700,9.920810791015626,-0.027597513049840927,0.00835227407515049,0.02455831691622734
1789063979751848000,9.930847900390624,-0.008068788796663284,-0.016888566315174103,0.11974765360355377
1789063979761885000,9.940885009765625,0.003613966517150402,-0.03369923681020737,0.1357404589653015
1789063979771923000,9.9509228515625,0.00022329692728817463,0.03178416192531586,0.11812535673379898
1789063979781960000,9.9609599609375,-0.004769597202539444,0.05380530655384064,0.10034609586000443
1789063979791997000,9.970996826171875,-0.01923799142241478,0.01627495512366295,0.10639634728431702
1789063979802034000,9.981033935546876,-0.01749974861741066,0.02519681118428707,0.031463783234357834
1789063979812071000,9.99107080078125,-0.013856714591383934,-0.01772276684641838,-0.03354363888502121
1789063979822108000,10.00110791015625,-0.0033827684819698334,0.02837681770324707,-0.09271321445703506
1789063979832145000,10.011144775390624,-0.014359326101839542,0.041056517511606216,-0.11037382483482361
1789063979842182000,10.021181884765625,-0.04030730202794075,-0.07185699045658112,-0.0985557809472084
1789063979852219000,10.031218994140625,-0.056889016181230545,0.03162631392478943,-0.13458381593227386
1789063979862255900,10.041255859375,-0.06044779717922211,-0.040892891585826874,-0.08824826776981354
1789063979872294000,10.0512939453125,-0.04228157550096512,0.005343313328921795,-0.05708875507116318
1789063979882331000,10.061330810546876,-0.03681570291519165,-0.009148740209639072,0.0010428624227643013
1789063979892368000,10.071367919921874,-0.04596951976418495,-0.03654208779335022,0.07609007507562637
1789063979902404900,10.08140478515625,-0.06183929741382599,-0.029383772984147072,0.12081173807382584
1789063979912441900,10.09144189453125,-0.07334807515144348,-0.01043490320444107,0.10431450605392456
1789063979922478800,10.101478759765625,-0.0738237202167511,-0.04140879586338997,0.09807685017585754
1789063979932515800,10.111515869140625,-0.07867980003356934,-0.04028788581490517,0.13684728741645813
1789063979942552800,10.121552734375,-0.08950182050466537,-0.08361299335956573,0.1348632425069809
1789063979952590000,10.131590087890626,-0.10761432349681854,-0.09443775564432144,0.1263669729232788
1789063979962626800,10.141626708984376,-0.10578126460313797,-0.045603103935718536,0.07887642085552216
1789063979972663800,10.151663818359374,-0.10024431347846985,-0.0828169733285904,0.047269269824028015
1789063979982702000,10.1617021484375,-0.09611134976148605,-0.0681685209274292,0.013248186558485031
1789063979992739000,10.171739013671875,-0.10449541360139847,-0.01371673122048378,-0.049228303134441376
1789063980002775800,10.18177587890625,-0.09917441755533218,-0.055689480155706406,-0.12522639334201813
1789063980012812800,10.191812744140625,-0.07787535339593887,-0.0030741312075406313,-0.14551496505737305
1789063980022849800,10.201849853515625,-0.07546039670705795,-0.08337882161140442,-0.1319139301776886
1789063980032887000,10.211886962890626,-0.07474410533905029,-0.08816219121217728,-0.15384726226329803
1789063980042924000,10.221924072265624,-0.09291885048151016,-0.0882364958524704,-0.0898890569806099
1789063980052960800,10.231960693359374,-0.08431880176067352,-0.06884801387786865,-0.08083424717187881
1789063980062997800,10.241997802734375,-0.06461486965417862,-0.092648945748806,-0.0201013945043087
1789063980073035000,10.252034912109375,-0.05076766759157181,-0.038926199078559875,0.04440350830554962
1789063980083073000,10.262072998046875,-0.03948145732283592,-0.07978282123804092,0.05720771849155426
1789063980093109800,10.27210986328125,-0.032446302473545074,-0.057340990751981735,0.08153434097766876
1789063980103146800,10.282146728515626,-0.027768991887569427,-0.028702424839138985,0.06776659935712814
1789063980113184000,10.29218408203125,-0.011381354182958603,-0.11360291391611099,0.04421570897102356
1789063980123221000,10.302220947265624,-0.008874520659446716,-0.05637078732252121,0.038526397198438644
1789063980133258000,10.312258056640625,0.006554744206368923,-0.08569164574146271,-0.0293749812990427
1789063980143294700,10.322294677734375,0.029178030788898468,-0.03270778805017471,-0.058980543166399
1789063980153332000,10.33233203125,0.047636158764362335,-0.020896220579743385,-0.042502548545598984
1789063980163369000,10.342368896484375,0.08265752345323563,-0.03759024292230606,-0.08306834846735
1789063980173406000,10.352406005859375,0.13235244154930115,0.013287995010614395,-0.06260956078767776
1789063980183443700,10.362443603515626,0.1463196575641632,-0.05444071814417839,-0.02244642749428749
1789063980193481000,10.37248095703125,0.1592859923839569,0.009426000528037548,-0.03434155881404877
1789063980203518000,10.38251806640625,0.15645025670528412,0.04290593042969704,-0.0029388926923274994
1789063980213555000,10.392554931640625,0.16094252467155457,-0.0035197907127439976,0.007616719231009483
1789063980223591700,10.402591796875,0.18215219676494598,0.025926781818270683,0.04220159351825714
1789063980233629000,10.41262890625,0.17612206935882568,0.034564435482025146,0.0837412178516388
1789063980243666000,10.422666015625,0.15937185287475586,-0.005963015370070934,0.07789451628923416
1789063980253703000,10.432702880859376,0.16263064742088318,0.06138986349105835,0.04904387891292572
1789063980263740000,10.442739990234376,0.162846639752388,0.006313031539320946,0.10515934973955154
1789063980273777000,10.45277685546875,0.15942488610744476,0.033548809587955475,0.035303547978401184
1789063980283815000,10.46281494140625,0.1843494176864624,0.07989953458309174,-0.08229605108499527
1789063980293852000,10.472851806640625,0.19141174852848053,0.10831479728221893,-0.0846310555934906
1789063980303889000,10.482888916015625,0.19002529978752136,0.03397984430193901,-0.10782745480537415
1789063980313926000,10.49292578125,0.15908145904541016,0.072071872651577,-0.09143532812595367
1789063980323963000,10.502962890625,0.1449699103832245,0.041326213628053665,-0.1412295252084732
1789063980333999900,10.512999755859376,0.1833811104297638,0.08787654340267181,-0.11270008236169815
1789063980344036900,10.523036865234374,0.18133661150932312,0.015083557926118374,-0.07467733323574066
1789063980354074000,10.53307421875,0.20288033783435822,0.10523861646652222,-0.06126996874809265
1789063980364110800,10.54311083984375,0.1536470204591751,0.06278996169567108,0.05858026444911957
1789063980374147800,10.55314794921875,0.13369594514369965,0.11562840640544891,-0.0013128964928910136
1789063980384184800,10.563184814453125,0.12202516943216324,0.06882787495851517,0.04836065322160721
1789063980394222800,10.573222900390626,0.14280056953430176,0.11414463818073273,0.07943985611200333
1789063980404259800,10.583259765625,0.1650179922580719,0.013198048807680607,0.11622264236211777
1789063980414296800,10.593296875,0.16930127143859863,0.06493552774190903,0.05076296627521515
1789063980424333800,10.603333740234374,0.1278126835823059,0.07008874416351318,0.06507480144500732
1789063980434371000,10.61337109375,0.057204145938158035,0.027669286355376244,0.08070504665374756
1789063980444408000,10.623407958984375,0.03434623405337334,0.011965958401560783,-0.0002025878056883812
1789063980454444800,10.63344482421875,0.017907485365867615,0.009989913552999496,-0.00000687246210873127
1789063980464481800,10.643481689453125,0.004986627027392387,-0.02344127930700779,-0.006106310524046421
1789063980474519000,10.65351904296875,-0.032814063131809235,0.023388179019093513,-0.01968034915626049
1789063980484556000,10.66355615234375,-0.08965124934911728,-0.03327750042080879,0.04418252035975456
1789063980494593800,10.67359375,-0.10142670571804047,-0.043930791318416595,0.05142543464899063
1789063980504630800,10.683630859375,-0.0636012926697731,-0.010623433627188206,-0.0036183746997267008
1789063980514668000,10.69366796875,-0.026261767372488976,-0.020008321851491928,0.034029509872198105
1789063980524705000,10.703705078125,-0.017955899238586426,-0.0597890205681324,0.07445629686117172
1789063980534741800,10.71374169921875,-0.03830879181623459,-0.024518422782421112,0.06814663857221603
1789063980544778800,10.72377880859375,-0.06952770054340363,0.003035973757505417,0.017310887575149536
1789063980554816000,10.73381591796875,-0.07729297131299973,0.04438603296875954,-0.028306880965828896
1789063980564853000,10.74385302734375,-0.07794997096061707,0.04049914702773094,-0.027352670207619667
1789063980574890000,10.753889892578124,-0.0496540293097496,-0.052010297775268555,-0.043766237795352936
1789063980584926700,10.7639267578125,-0.00811270996928215,-0.016949784010648727,-0.09195000678300858
1789063980594965000,10.773965087890625,-0.005042692180722952,-0.02918216586112976,-0.14831474423408508
1789063980605002000,10.784001953125,-0.04132506623864174,-0.03999726101756096,-0.13945254683494568
1789063980615039000,10.7940390625,-0.09160855412483215,0.03840358927845955,-0.0911630243062973
1789063980625075700,10.80407568359375,-0.11837358772754669,-0.0429471917450428,-0.05175064131617546
1789063980635113000,10.814113037109376,-0.07536370307207108,0.04653128236532211,-0.06160253658890724
1789063980645149400,10.8241494140625,-0.02983163669705391,-0.0005368930287659168,-0.004309417679905891
1789063980655186400,10.8341865234375,0.0008945828303694725,0.027123495936393738,-0.0015421268763020635
1789063980665223700,10.8442236328125,-0.01708495058119297,-0.02580922655761242,0.08891800045967102
1789063980675260400,10.854260498046875,-0.0652097761631012,-0.051214054226875305,0.16365529596805573
1789063980685297400,10.86429736328125,-0.10708585381507874,-0.06275565922260284,0.11740550398826599
1789063980695334400,10.87433447265625,-0.10467040538787842,0.040479954332113266,0.09263528138399124
1789063980705372700,10.88437255859375,-0.11989356577396393,-0.048647791147232056,0.15648935735225677
1789063980715409400,10.894409423828124,-0.10642838478088379,-0.040791988372802734,0.11974137276411057
1789063980725446400,10.9044462890625,-0.11471294611692429,-0.03311862051486969,0.1347901076078415
1789063980735483600,10.914483642578125,-0.1097334623336792,-0.05500507354736328,0.07392428070306778
1789063980745520600,10.924520751953125,-0.1027969941496849,-0.005798112601041794,-0.03215528279542923
1789063980755557600,10.9345576171875,-0.12413027882575989,-0.05702865496277809,-0.03958212584257126
1789063980765594400,10.944594482421875,-0.1414261758327484,-0.02279558591544628,-0.029071161523461342
1789063980775631400,10.95463134765625,-0.13964292407035828,-0.043107178062200546,-0.13189727067947388
1789063980785668600,10.964668701171876,-0.13123930990695953,-0.059176959097385406,-0.2055664360523224
1789063980795705600,10.97470556640625,-0.11438450217247009,0.03958388790488243,-0.21187278628349304
1789063980805742600,10.98474267578125,-0.10409191995859146,-0.08916210383176804,-0.06573901325464249
1789063980815780600,10.994780517578125,-0.11928518861532211,-0.12782879173755646,0.006797091569751501
1789063980825817600,11.004817626953125,-0.09231056272983551,0.006909312680363655,-0.08275596052408218
1789063980835854600,11.0148544921875,-0.08103064447641373,0.0019309320487082005,-0.025662636384367943
1789063980845891600,11.0248916015625,-0.08182346820831299,0.02568020299077034,0.06389414519071579
1789063980855928300,11.03492822265625,-0.09518028050661087,-0.040594831109046936,0.09502196311950684
1789063980865965600,11.044965576171874,-0.1052614152431488,-0.023963656276464462,0.0542023591697216
1789063980876002600,11.05500244140625,-0.09270794689655304,-0.0220163743942976,-0.036030303686857224
1789063980886039600,11.06503955078125,-0.06852751225233078,-0.03698493540287018,-0.021909158676862717
1789063980896076500,11.07507666015625,-0.07793179154396057,-0.06796467304229736,0.016429949551820755
1789063980906113500,11.085113525390625,-0.10260357707738876,-0.04129843786358833,-0.019565600901842117
1789063980916151600,11.095151611328125,-0.12445183843374252,0.013473762199282646,-0.045642439275979996
1789063980926188500,11.1051884765625,-0.1346682608127594,0.044276412576436996,-0.04763927683234215
1789063980936225500,11.1152255859375,-0.08083730190992355,-0.01538021955639124,-0.03680890426039696
1789063980946262500,11.125262451171874,-0.044549062848091125,-0.028869129717350006,0.023250440135598183
1789063980956299500,11.135299560546875,-0.03103640303015709,-0.02886723354458809,0.024212943390011787
1789063980966336500,11.14533642578125,-0.05181571841239929,-0.008144380524754524,-0.014061475172638893
1789063980976373500,11.15537353515625,-0.09715603291988373,-0.011550030671060085,0.005923151969909668
1789063980986410500,11.165410400390625,-0.12799517810344696,-0.032516829669475555,0.08643876016139984
1789063980996447500,11.175447509765625,-0.14513705670833588,-0.05707217752933502,0.06988702714443207
1789063981006484500,11.185484375,-0.17045412957668304,-0.023594114929437637,0.030340682715177536
1789063981016521500,11.195521484375,-0.17728088796138763,-0.020366813987493515,-0.011067429557442665
1789063981026559500,11.2055595703125,-0.1610097736120224,-0.0678083598613739,-0.02018263190984726
1789063981036596500,11.215596435546875,-0.15630696713924408,-0.11333099007606506,0.022040069103240967
1789063981046633500,11.225633544921875,-0.13133478164672852,-0.07264774292707443,-0.07265501469373703
1789063981056670500,11.23567041015625,-0.11575882136821747,-0.0242965966463089,-0.14426274597644806
1789063981066707700,11.245707763671875,-0.16143442690372467,-0.030660485848784447,-0.09276945888996124
1789063981076744400,11.255744384765626,-0.20362935960292816,-0.04770492762327194,-0.05970017984509468
1789063981086781400,11.265781494140626,-0.2209702730178833,-0.10321026295423508,-0.026373112574219704
1789063981096818400,11.275818359375,-0.1899089217185974,-0.05723665654659271,-0.015759678557515144
1789063981106855700,11.285855712890625,-0.13874879479408264,-0.06232542544603348,0.013856803067028522
1789063981116892700,11.295892578125,-0.13585394620895386,-0.09649378061294556,0.11985860764980316
1789063981126930400,11.305930419921875,-0.15262040495872498,-0.07104860991239548,0.12087273597717285
1789063981136967400,11.315967529296875,-0.1682766228914261,-0.0868695005774498,0.11789070814847946
1789063981147004700,11.326004638671876,-0.16905426979064941,-0.03312823921442032,0.080744668841362
1789063981157041700,11.336041748046876,-0.14593107998371124,-0.071056067943573,0.04670689254999161
1789063981167078400,11.346078369140624,-0.12436293810606003,-0.0804935097694397,0.03801247105002403
1789063981177115400,11.356115478515624,-0.11836124211549759,-0.10960418730974197,0.02751016616821289
1789063981187152600,11.366152587890625,-0.14406925439834595,-0.12432454526424408,0.00671806838363409
1789063981197189600,11.376189697265625,-0.1460208296775818,-0.06876788288354874,-0.09381400048732758
1789063981207226600,11.3862265625,-0.12324067950248718,-0.05896052345633507,-0.13826775550842285
1789063981217263400,11.396263427734375,-0.07861902564764023,-0.08233549445867538,-0.09959995001554489
1789063981227300600,11.406300537109376,-0.07041649520397186,-0.14500953257083893,-0.021747229620814323
1789063981237338600,11.416338623046874,-0.10233661532402039,-0.0710550919175148,-0.05449812859296799
1789063981247375600,11.426375732421874,-0.13265056908130646,-0.049182549118995667,-0.1254042536020279
1789063981257412400,11.436412353515625,-0.147518590092659,-0.038667768239974976,-0.03240736573934555
1789063981267449600,11.44644970703125,-0.1277392953634262,-0.16982418298721313,0.07472734898328781
1789063981277486600,11.456486572265625,-0.06171606481075287,-0.10524379462003708,0.053419794887304306
1789063981287523600,11.466523681640625,-0.008938074111938477,-0.07076811045408249,0.05283070355653763
1789063981297560600,11.476560546875,0.04123881459236145,-0.01985897868871689,0.052239224314689636
1789063981307597600,11.48659765625,0.0837031826376915,-0.005988169461488724,0.11429433524608612
1789063981317634600,11.496634521484374,0.08921580016613007,0.033940818160772324,0.1429324746131897
1789063981327671600,11.506671630859374,0.08644584566354752,0.018359726294875145,0.07504450529813766
1789063981337709300,11.516709228515625,0.08507533371448517,-0.04358569532632828,0.0359809547662735
1789063981347746600,11.52674658203125,0.09469946473836899,-0.031049398705363274,-0.01548356655985117
1789063981357783600,11.536783447265625,0.09193990379571915,-0.0700228214263916,-0.062259454280138016
1789063981367820500,11.546820556640625,0.07520060241222382,-0.026196513324975967,-0.14304378628730774
1789063981377857500,11.556857421875,0.04752597585320473,0.0051957834511995316,-0.13958729803562164
1789063981387894500,11.56689453125,0.06157601624727249,0.011753018014132977,-0.1413218080997467
1789063981397931500,11.576931640625,0.12222328782081604,0.03200629726052284,-0.1414766162633896
1789063981407968500,11.586968505859375,0.18311592936515808,-0.031946852803230286,-0.11688472330570221
1789063981418005500,11.597005615234375,0.22312472760677338,0.021639050915837288,-0.07939977198839188
1789063981428042500,11.60704248046875,0.18765941262245178,-0.0265433918684721,0.04096845164895058
1789063981438079500,11.61707958984375,0.11724448204040527,-0.00880669616162777,0.059211526066064835
1789063981448117500,11.627117431640626,0.08102895319461823,-0.00219167023897171,0.06789076328277588
1789063981458154500,11.637154541015626,0.07728496193885803,0.022066153585910797,0.16908341646194458
1789063981468191700,11.647191650390624,0.10467983782291412,-0.03032994270324707,0.22952277958393097
1789063981478228500,11.657228515625,0.12442576140165329,-0.11599777638912201,0.20384806394577026
1789063981488265500,11.667265380859375,0.138461172580719,0.008278095163404942,0.17999306321144104
1789063981498302500,11.677302490234375,0.13467663526535034,-0.0017543081194162369,0.1590999811887741
1789063981508339700,11.687339599609375,0.09535453468561172,-0.01778440736234188,0.05876351147890091
1789063981518376700,11.697376708984375,0.06349821388721466,0.02789921686053276,-0.034590162336826324
1789063981528413400,11.707413330078126,0.040056802332401276,0.040557220578193665,-0.11327937990427017
1789063981538450400,11.717450439453126,0.048844411969184875,-0.016790073364973068,-0.19088824093341827
1789063981548487400,11.7274873046875,0.04795651510357857,-0.03673794865608215,-0.2330346256494522
1789063981558525400,11.737525390625,0.03982525318861008,0.0035471636801958084,-0.26406651735305786
1789063981568562400,11.7475625,0.04214832931756973,-0.028367359191179276,-0.253001868724823
1789063981578599400,11.757599365234375,0.058288272470235825,0.04324435070157051,-0.22553054988384247
1789063981588636700,11.76763671875,0.09681569039821625,0.002604511333629489,-0.152192160487175
1789063981598673700,11.777673583984376,0.12770548462867737,0.05623447895050049,-0.027356982231140137
1789063981608710400,11.78771044921875,0.11440537869930267,0.02596951834857464,0.0734947994351387
1789063981618747400,11.797747314453124,0.08387473225593567,0.027806362137198448,0.09005147963762283
1789063981628784400,11.807784423828124,0.05529848486185074,0.04455950856208801,0.15837113559246063
1789063981638821600,11.817821533203125,0.03134671598672867,0.013124097138643265,0.20698107779026031
1789063981648858600,11.827858642578125,0.04542525112628937,-0.03175043314695358,0.1725219041109085
1789063981658896000,11.837895751953125,0.0646049976348877,0.0248873308300972,0.1476280242204666
1789063981668934000,11.847933837890626,0.08616621047258377,0.04516597464680672,0.056122876703739166
1789063981678971100,11.85797119140625,0.11597209423780441,0.03600439429283142,0.03092874214053154
1789063981689007900,11.8680078125,0.1225663498044014,0.04592067375779152,-0.010295392945408821
1789063981699044900,11.878044921875,0.1028067097067833,0.03024275042116642,-0.0968708023428917
1789063981709081900,11.888081787109375,0.07307545095682144,0.05432998016476631,-0.13433268666267395
1789063981719118800,11.898118896484375,0.05850837007164955,0.08815014362335205,-0.1296420842409134
1789063981729156000,11.908156005859375,0.053763680160045624,0.010804494842886925,-0.0986359640955925
1789063981739193000,11.918193115234375,0.049315232783555984,-0.0320809930562973,-0.024903351441025734
1789063981749229800,11.928229736328126,0.02847466617822647,-0.009824690409004688,0.020223114639520645
1789063981759266800,11.938266845703126,-0.01317252404987812,0.02686185948550701,0.032093245536088943
1789063981769305000,11.94830517578125,-0.01847008615732193,0.05129503086209297,0.12043855339288712
1789063981779341800,11.958341796875,-0.016282588243484497,-0.013836681842803955,0.22130170464515686
1789063981789378800,11.96837890625,0.011441185139119625,-0.044876888394355774,0.22639818489551544
1789063981799415800,11.978415771484375,0.05892946198582649,0.015624783001840115,0.10430213809013367
1789063981809453000,11.988453125,0.06030445545911789,0.03326183557510376,0.06712121516466141
1789063981819490000,11.998489990234376,-0.003125603776425123,-0.038159992545843124,0.06203380972146988
1789063981829526800,12.00852685546875,-0.04673752933740616,0.007226929068565369,-0.058278750628232956
1789063981839563800,12.018563720703124,-0.07744668424129486,0.028307629749178886,-0.15477845072746277
1789063981849601000,12.02860107421875,-0.058156874030828476,-0.0595838762819767,-0.1892959475517273
1789063981859638000,12.038637939453125,-0.009117594920098782,0.01131585706025362,-0.24488548934459686
1789063981869675000,12.048675048828125,-0.02591601572930813,-0.024244800209999084,-0.20763079822063446
1789063981879713000,12.058713134765625,-0.06106395646929741,-0.06414195895195007,-0.16521941125392914
1789063981889750000,12.06875,-0.08504332602024078,0.01692146621644497,-0.15179042518138885
1789063981899787000,12.078787109375,-0.08409572392702103,-0.05534590780735016,-0.04775293543934822
1789063981909824000,12.088823974609374,-0.06360509246587753,-0.014463456347584724,0.022380612790584564
1789063981919860700,12.09886083984375,-0.08186735957860947,-0.05168313905596733,0.11199699342250824
1789063981929898000,12.10889794921875,-0.14843493700027466,-0.09737339615821838,0.1817917823791504
1789063981939935000,12.11893505859375,-0.1761820912361145,-0.047524381428956985,0.14230206608772278
1789063981949972000,12.128971923828125,-0.15974479913711548,-0.08322511613368988,0.21546868979930878
1789063981960009000,12.139009033203125,-0.10069125890731812,-0.12088233232498169,0.21136035025119781
1789063981970046000,12.1490458984375,-0.061277009546756744,-0.07570367306470871,0.14010347425937653
1789063981980083000,12.1590830078125,-0.10938892513513565,-0.011291027069091797,0.0842638835310936
1789063981990121000,12.169120849609374,-0.1924678385257721,-0.07048510760068893,0.016117585822939873
1789063982000158000,12.179157958984375,-0.22692988812923431,-0.06106893718242645,-0.01635643094778061
1789063982010195000,12.18919482421875,-0.20961934328079224,-0.11855007708072662,-0.02291340008378029
1789063982020232000,12.19923193359375,-0.13656200468540192,-0.11001896113157272,-0.14618533849716187
1789063982030269000,12.20926904296875,-0.07320700585842133,-0.09456650167703629,-0.18313589692115784
1789063982040306000,12.219305908203125,-0.06907747685909271,-0.10330262780189514,-0.09744568169116974
1789063982050343000,12.229343017578126,-0.04397452250123024,-0.0003493456169962883,-0.07931328564882278
1789063982060380000,12.2393798828125,-0.028798937797546387,0.03711233660578728,-0.03454706817865372
1789063982070417000,12.2494169921875,-0.0016293675871565938,0.041976600885391235,0.02820552885532379
1789063982080454000,12.259453857421875,0.04518905282020569,-0.020159244537353516,0.09391439706087112
